Time Stamp,C0,C1,C2,C3,C4,C5,C6,C7,Gx,Gy,Gz,Ax,Ay,Az
Sun May 14 14:39:28 2017,1.000000,-1.000000,-1.000000,-2.000000,-2.000000,0.000000,7.000000,2.000000,6.500000,-2.375000,-1.812500,-0.368652,0.346191,0.841309
Sun May 14 14:39:28 2017,1.000000,-1.000000,-1.000000,-2.000000,-2.000000,0.000000,7.000000,2.000000,6.500000,-2.375000,-1.812500,-0.368652,0.346191,0.841309
Sun May 14 14:39:28 2017,1.000000,-1.000000,-1.000000,-2.000000,-2.000000,0.000000,7.000000,2.000000,6.500000,-2.375000,-1.812500,-0.368652,0.346191,0.841309
Sun May 14 14:39:28 2017,1.000000,-1.000000,-1.000000,-2.000000,-2.000000,0.000000,7.000000,2.000000,6.500000,-2.375000,-1.812500,-0.368652,0.346191,0.841309
Sun May 14 14:39:29 2017,-1.000000,15.000000,2.000000,0.000000,4.000000,7.000000,-1.000000,1.000000,5.687500,-1.312500,-4.375000,-0.368652,0.330078,0.813965
Sun May 14 14:39:29 2017,-1.000000,15.000000,2.000000,0.000000,4.000000,7.000000,-1.000000,1.000000,5.687500,-1.312500,-4.375000,-0.368652,0.330078,0.813965
Sun May 14 14:39:29 2017,-3.000000,5.000000,-1.000000,-2.000000,-5.000000,-7.000000,-3.000000,-7.000000,5.687500,-1.312500,-4.375000,-0.368652,0.330078,0.813965
Sun May 14 14:39:29 2017,-3.000000,5.000000,-1.000000,-2.000000,-5.000000,-7.000000,-3.000000,-7.000000,1.750000,-1.250000,-2.875000,-0.354004,0.329102,0.796387
Sun May 14 14:39:29 2017,-3.000000,5.000000,-1.000000,-2.000000,-5.000000,-7.000000,-3.000000,-7.000000,1.750000,-1.250000,-2.875000,-0.354004,0.329102,0.796387
Sun May 14 14:39:29 2017,-3.000000,5.000000,-1.000000,-2.000000,-5.000000,-7.000000,-3.000000,-7.000000,1.750000,-1.250000,-2.875000,-0.354004,0.329102,0.796387
Sun May 14 14:39:29 2017,-1.000000,-18.000000,-8.000000,-2.000000,-1.000000,2.000000,-1.000000,-3.000000,-0.875000,0.062500,-1.937500,-0.351562,0.324707,0.808105
Sun May 14 14:39:29 2017,-1.000000,-18.000000,-8.000000,-2.000000,-1.000000,2.000000,-1.000000,-3.000000,-0.875000,0.062500,-1.937500,-0.351562,0.324707,0.808105
Sun May 14 14:39:29 2017,-1.000000,-18.000000,-8.000000,-2.000000,-1.000000,2.000000,-1.000000,-3.000000,-0.875000,0.062500,-1.937500,-0.351562,0.324707,0.808105
Sun May 14 14:39:29 2017,-1.000000,-18.000000,-8.000000,-2.000000,-1.000000,2.000000,-1.000000,-3.000000,-0.875000,0.062500,-1.937500,-0.351562,0.324707,0.808105
Sun May 14 14:39:29 2017,2.000000,6.000000,3.000000,-2.000000,-4.000000,1.000000,-1.000000,-1.000000,3.937500,0.937500,-2.750000,-0.360840,0.323730,0.813477
Sun May 14 14:39:29 2017,2.000000,6.000000,3.000000,-2.000000,-4.000000,1.000000,-1.000000,-1.000000,3.937500,0.937500,-2.750000,-0.360840,0.323730,0.813477
Sun May 14 14:39:29 2017,-4.000000,-7.000000,3.000000,-2.000000,-7.000000,-9.000000,-6.000000,-7.000000,3.937500,0.937500,-2.750000,-0.360840,0.323730,0.813477
Sun May 14 14:39:29 2017,-4.000000,-7.000000,3.000000,-2.000000,-7.000000,-9.000000,-6.000000,-7.000000,3.937500,0.937500,-2.750000,-0.360840,0.323730,0.813477
Sun May 14 14:39:29 2017,-2.000000,-7.000000,-2.000000,0.000000,2.000000,0.000000,2.000000,-1.000000,2.375000,0.125000,-2.687500,-0.346191,0.339355,0.802734
Sun May 14 14:39:29 2017,-2.000000,-7.000000,-2.000000,0.000000,2.000000,0.000000,2.000000,-1.000000,2.375000,0.125000,-2.687500,-0.346191,0.339355,0.802734
Sun May 14 14:39:29 2017,-4.000000,-5.000000,0.000000,-1.000000,1.000000,0.000000,-2.000000,-3.000000,2.375000,0.125000,-2.687500,-0.346191,0.339355,0.802734
Sun May 14 14:39:29 2017,-4.000000,-5.000000,0.000000,-1.000000,1.000000,0.000000,-2.000000,-3.000000,-1.625000,1.437500,-5.500000,-0.344727,0.375488,0.809082
Sun May 14 14:39:29 2017,-4.000000,-5.000000,0.000000,-1.000000,1.000000,0.000000,-2.000000,-3.000000,-1.625000,1.437500,-5.500000,-0.344727,0.375488,0.809082
Sun May 14 14:39:29 2017,-4.000000,-5.000000,0.000000,-1.000000,1.000000,0.000000,-2.000000,-3.000000,-1.625000,1.437500,-5.500000,-0.344727,0.375488,0.809082
Sun May 14 14:39:29 2017,-5.000000,-16.000000,-2.000000,-4.000000,-3.000000,-4.000000,-2.000000,-4.000000,-7.625000,2.875000,-3.312500,-0.352539,0.382812,0.803711
Sun May 14 14:39:29 2017,-5.000000,-16.000000,-2.000000,-4.000000,-3.000000,-4.000000,-2.000000,-4.000000,-7.625000,2.875000,-3.312500,-0.352539,0.382812,0.803711
Sun May 14 14:39:29 2017,3.000000,2.000000,1.000000,2.000000,-2.000000,-1.000000,2.000000,3.000000,-7.625000,2.875000,-3.312500,-0.352539,0.382812,0.803711
Sun May 14 14:39:29 2017,2.000000,3.000000,-4.000000,0.000000,0.000000,-1.000000,-2.000000,-5.000000,-7.625000,2.875000,-3.312500,-0.352539,0.382812,0.803711
Sun May 14 14:39:29 2017,-1.000000,5.000000,4.000000,-2.000000,1.000000,0.000000,0.000000,-3.000000,-15.062500,3.875000,-0.750000,-0.340820,0.354980,0.822266
Sun May 14 14:39:29 2017,-1.000000,5.000000,4.000000,-2.000000,1.000000,0.000000,0.000000,-3.000000,-15.062500,3.875000,-0.750000,-0.340820,0.354980,0.822266
Sun May 14 14:39:29 2017,-1.000000,5.000000,4.000000,-2.000000,1.000000,0.000000,0.000000,-3.000000,-15.062500,3.875000,-0.750000,-0.340820,0.354980,0.822266
Sun May 14 14:39:29 2017,-1.000000,5.000000,4.000000,-2.000000,1.000000,0.000000,0.000000,-3.000000,-15.062500,3.875000,-0.750000,-0.340820,0.354980,0.822266
Sun May 14 14:39:29 2017,1.000000,-1.000000,-1.000000,-3.000000,0.000000,-3.000000,-4.000000,4.000000,-9.812500,5.812500,0.500000,-0.327637,0.322266,0.851074
Sun May 14 14:39:29 2017,1.000000,-1.000000,-1.000000,-3.000000,0.000000,-3.000000,-4.000000,4.000000,-9.812500,5.812500,0.500000,-0.327637,0.322266,0.851074
Sun May 14 14:39:29 2017,1.000000,-1.000000,-1.000000,-3.000000,0.000000,-3.000000,-4.000000,4.000000,-9.812500,5.812500,0.500000,-0.327637,0.322266,0.851074
Sun May 14 14:39:29 2017,-4.000000,1.000000,-5.000000,0.000000,-1.000000,2.000000,0.000000,-1.000000,-7.125000,5.062500,-4.562500,-0.384277,0.338867,0.867676
Sun May 14 14:39:29 2017,-4.000000,1.000000,-5.000000,0.000000,-1.000000,2.000000,0.000000,-1.000000,-7.125000,5.062500,-4.562500,-0.384277,0.338867,0.867676
Sun May 14 14:39:29 2017,-1.000000,-2.000000,2.000000,-3.000000,-3.000000,-3.000000,-5.000000,-2.000000,-7.125000,5.062500,-4.562500,-0.384277,0.338867,0.867676
Sun May 14 14:39:29 2017,-5.000000,-5.000000,-1.000000,-2.000000,1.000000,0.000000,2.000000,-3.000000,-8.187500,3.187500,-3.375000,-0.403809,0.364258,0.861816
Sun May 14 14:39:29 2017,-5.000000,-5.000000,-1.000000,-2.000000,1.000000,0.000000,2.000000,-3.000000,-8.187500,3.187500,-3.375000,-0.403809,0.364258,0.861816
Sun May 14 14:39:29 2017,-5.000000,-5.000000,-1.000000,-2.000000,1.000000,0.000000,2.000000,-3.000000,-8.187500,3.187500,-3.375000,-0.403809,0.364258,0.861816
Sun May 14 14:39:29 2017,-1.000000,-1.000000,-2.000000,2.000000,0.000000,0.000000,-5.000000,-1.000000,-13.125000,2.812500,0.375000,-0.385742,0.362305,0.853027
Sun May 14 14:39:29 2017,-1.000000,-1.000000,-2.000000,2.000000,0.000000,0.000000,-5.000000,-1.000000,-13.125000,2.812500,0.375000,-0.385742,0.362305,0.853027
Sun May 14 14:39:29 2017,-1.000000,-1.000000,-2.000000,2.000000,0.000000,0.000000,-5.000000,-1.000000,-13.125000,2.812500,0.375000,-0.385742,0.362305,0.853027
Sun May 14 14:39:29 2017,-1.000000,-1.000000,-2.000000,2.000000,0.000000,0.000000,-5.000000,-1.000000,-13.125000,2.812500,0.375000,-0.385742,0.362305,0.853027
Sun May 14 14:39:29 2017,0.000000,4.000000,3.000000,-1.000000,-3.000000,1.000000,-1.000000,-1.000000,-11.500000,2.687500,4.750000,-0.392090,0.338379,0.853516
Sun May 14 14:39:29 2017,0.000000,4.000000,3.000000,-1.000000,-3.000000,1.000000,-1.000000,-1.000000,-11.500000,2.687500,4.750000,-0.392090,0.338379,0.853516
Sun May 14 14:39:29 2017,-4.000000,-5.000000,-5.000000,-2.000000,2.000000,-1.000000,-2.000000,-1.000000,-11.500000,2.687500,4.750000,-0.392090,0.338379,0.853516
Sun May 14 14:39:29 2017,0.000000,-1.000000,-2.000000,2.000000,1.000000,-1.000000,0.000000,-2.000000,-5.375000,2.000000,5.500000,-0.398926,0.323730,0.854004
Sun May 14 14:39:29 2017,0.000000,-1.000000,-2.000000,2.000000,1.000000,-1.000000,0.000000,-2.000000,-5.375000,2.000000,5.500000,-0.398926,0.323730,0.854004
Sun May 14 14:39:29 2017,0.000000,-1.000000,-2.000000,2.000000,1.000000,-1.000000,0.000000,-2.000000,-5.375000,2.000000,5.500000,-0.398926,0.323730,0.854004
Sun May 14 14:39:29 2017,1.000000,-1.000000,-2.000000,1.000000,1.000000,0.000000,4.000000,-2.000000,3.000000,1.687500,4.375000,-0.386230,0.316406,0.858398
Sun May 14 14:39:29 2017,1.000000,-1.000000,-2.000000,1.000000,1.000000,0.000000,4.000000,-2.000000,3.000000,1.687500,4.375000,-0.386230,0.316406,0.858398
Sun May 14 14:39:29 2017,1.000000,-1.000000,-2.000000,1.000000,1.000000,0.000000,4.000000,-2.000000,3.000000,1.687500,4.375000,-0.386230,0.316406,0.858398
Sun May 14 14:39:29 2017,1.000000,-1.000000,-2.000000,1.000000,1.000000,0.000000,4.000000,-2.000000,3.000000,1.687500,4.375000,-0.386230,0.316406,0.858398
Sun May 14 14:39:29 2017,-1.000000,-11.000000,-4.000000,0.000000,0.000000,-1.000000,-2.000000,-3.000000,6.312500,0.812500,2.875000,-0.391602,0.335938,0.848145
Sun May 14 14:39:29 2017,-1.000000,-11.000000,-4.000000,0.000000,0.000000,-1.000000,-2.000000,-3.000000,6.312500,0.812500,2.875000,-0.391602,0.335938,0.848145
Sun May 14 14:39:29 2017,-13.000000,-12.000000,0.000000,3.000000,1.000000,1.000000,3.000000,1.000000,6.312500,0.812500,2.875000,-0.391602,0.335938,0.848145
Sun May 14 14:39:29 2017,-13.000000,-12.000000,0.000000,3.000000,1.000000,1.000000,3.000000,1.000000,6.312500,0.812500,2.875000,-0.391602,0.335938,0.848145
Sun May 14 14:39:29 2017,0.000000,0.000000,1.000000,-1.000000,-3.000000,0.000000,1.000000,3.000000,1.562500,0.312500,2.437500,-0.396484,0.362305,0.849121
Sun May 14 14:39:29 2017,0.000000,0.000000,1.000000,-1.000000,-3.000000,0.000000,1.000000,3.000000,1.562500,0.312500,2.437500,-0.396484,0.362305,0.849121
Sun May 14 14:39:29 2017,7.000000,-1.000000,-1.000000,-3.000000,0.000000,0.000000,-3.000000,0.000000,-6.187500,-0.687500,4.687500,-0.390137,0.354980,0.841309
Sun May 14 14:39:29 2017,-4.000000,1.000000,3.000000,0.000000,-1.000000,0.000000,0.000000,4.000000,-6.187500,-0.687500,4.687500,-0.390137,0.354980,0.841309
Sun May 14 14:39:29 2017,-4.000000,1.000000,3.000000,0.000000,-1.000000,0.000000,0.000000,4.000000,-6.187500,-0.687500,4.687500,-0.390137,0.354980,0.841309
Sun May 14 14:39:29 2017,-4.000000,1.000000,3.000000,0.000000,-1.000000,0.000000,0.000000,4.000000,-6.187500,-0.687500,4.687500,-0.390137,0.354980,0.841309
Sun May 14 14:39:29 2017,3.000000,1.000000,0.000000,0.000000,-2.000000,-1.000000,-5.000000,-2.000000,-8.500000,0.750000,7.437500,-0.387207,0.331055,0.835449
Sun May 14 14:39:29 2017,3.000000,1.000000,0.000000,0.000000,-2.000000,-1.000000,-5.000000,-2.000000,-8.500000,0.750000,7.437500,-0.387207,0.331055,0.835449
Sun May 14 14:39:29 2017,6.000000,-1.000000,-4.000000,-2.000000,0.000000,-2.000000,3.000000,-3.000000,-8.500000,0.750000,7.437500,-0.387207,0.331055,0.835449
Sun May 14 14:39:29 2017,6.000000,-1.000000,-4.000000,-2.000000,0.000000,-2.000000,3.000000,-3.000000,-8.500000,0.750000,7.437500,-0.387207,0.331055,0.835449
Sun May 14 14:39:29 2017,2.000000,2.000000,-3.000000,-1.000000,-1.000000,-3.000000,-3.000000,-4.000000,-5.187500,1.437500,5.750000,-0.395020,0.305664,0.839355
Sun May 14 14:39:29 2017,2.000000,2.000000,-3.000000,-1.000000,-1.000000,-3.000000,-3.000000,-4.000000,-5.187500,1.437500,5.750000,-0.395020,0.305664,0.839355
Sun May 14 14:39:29 2017,7.000000,5.000000,5.000000,2.000000,-1.000000,0.000000,-1.000000,3.000000,-0.187500,1.437500,3.875000,-0.393066,0.305664,0.846680
Sun May 14 14:39:29 2017,-2.000000,1.000000,-2.000000,-3.000000,-1.000000,-3.000000,-1.000000,-1.000000,-0.187500,1.437500,3.875000,-0.393066,0.305664,0.846680
Sun May 14 14:39:29 2017,-2.000000,1.000000,-2.000000,-3.000000,-1.000000,-3.000000,-1.000000,-1.000000,-0.187500,1.437500,3.875000,-0.393066,0.305664,0.846680
Sun May 14 14:39:29 2017,-2.000000,1.000000,-2.000000,-3.000000,-1.000000,-3.000000,-1.000000,-1.000000,-0.187500,1.437500,3.875000,-0.393066,0.305664,0.846680
Sun May 14 14:39:29 2017,-9.000000,0.000000,-3.000000,-1.000000,-1.000000,0.000000,-2.000000,-4.000000,2.625000,1.625000,1.937500,-0.386719,0.314453,0.841309
Sun May 14 14:39:29 2017,-1.000000,-3.000000,-4.000000,-4.000000,-3.000000,0.000000,-2.000000,0.000000,2.625000,1.625000,1.937500,-0.386719,0.314453,0.841309
Sun May 14 14:39:29 2017,-1.000000,-3.000000,-4.000000,-4.000000,-3.000000,0.000000,-2.000000,0.000000,2.625000,1.625000,1.937500,-0.386719,0.314453,0.841309
Sun May 14 14:39:29 2017,-2.000000,0.000000,-4.000000,0.000000,0.000000,-1.000000,0.000000,-5.000000,2.625000,1.625000,1.937500,-0.386719,0.314453,0.841309
Sun May 14 14:39:29 2017,-2.000000,0.000000,3.000000,-2.000000,-1.000000,-3.000000,0.000000,2.000000,3.812500,2.250000,1.250000,-0.378418,0.326660,0.842773
Sun May 14 14:39:29 2017,-2.000000,0.000000,3.000000,-2.000000,-1.000000,-3.000000,0.000000,2.000000,3.812500,2.250000,1.250000,-0.378418,0.326660,0.842773
Sun May 14 14:39:29 2017,-2.000000,0.000000,3.000000,-2.000000,-1.000000,-3.000000,0.000000,2.000000,3.812500,2.250000,1.250000,-0.378418,0.326660,0.842773
Sun May 14 14:39:29 2017,-6.000000,2.000000,-1.000000,1.000000,1.000000,0.000000,3.000000,0.000000,3.375000,2.250000,1.250000,-0.376465,0.333984,0.844238
Sun May 14 14:39:29 2017,-6.000000,2.000000,-1.000000,1.000000,1.000000,0.000000,3.000000,0.000000,3.375000,2.250000,1.250000,-0.376465,0.333984,0.844238
Sun May 14 14:39:29 2017,-6.000000,2.000000,-1.000000,1.000000,1.000000,0.000000,3.000000,0.000000,3.375000,2.250000,1.250000,-0.376465,0.333984,0.844238
Sun May 14 14:39:29 2017,-6.000000,2.000000,-1.000000,1.000000,1.000000,0.000000,3.000000,0.000000,3.375000,2.250000,1.250000,-0.376465,0.333984,0.844238
Sun May 14 14:39:29 2017,-6.000000,-5.000000,-4.000000,-2.000000,-2.000000,-2.000000,-1.000000,-4.000000,1.750000,1.937500,1.125000,-0.374023,0.339844,0.841309
Sun May 14 14:39:29 2017,-6.000000,-5.000000,-4.000000,-2.000000,-2.000000,-2.000000,-1.000000,-4.000000,1.750000,1.937500,1.125000,-0.374023,0.339844,0.841309
Sun May 14 14:39:29 2017,1.000000,1.000000,0.000000,-2.000000,-2.000000,-1.000000,1.000000,2.000000,1.750000,1.937500,1.125000,-0.374023,0.339844,0.841309
Sun May 14 14:39:29 2017,1.000000,1.000000,0.000000,-2.000000,-2.000000,-1.000000,1.000000,2.000000,1.750000,1.937500,1.125000,-0.374023,0.339844,0.841309
Sun May 14 14:39:29 2017,-4.000000,-2.000000,-3.000000,-2.000000,0.000000,-3.000000,-7.000000,-2.000000,0.687500,1.312500,1.125000,-0.374512,0.338867,0.846191
Sun May 14 14:39:29 2017,-4.000000,-2.000000,-3.000000,-2.000000,0.000000,-3.000000,-7.000000,-2.000000,0.687500,1.312500,1.125000,-0.374512,0.338867,0.846191
Sun May 14 14:39:29 2017,0.000000,2.000000,0.000000,2.000000,-1.000000,-1.000000,-1.000000,2.000000,-0.312500,0.937500,0.875000,-0.372559,0.338379,0.845703
Sun May 14 14:39:29 2017,-2.000000,-4.000000,1.000000,-1.000000,-4.000000,2.000000,2.000000,0.000000,-0.312500,0.937500,0.875000,-0.372559,0.338379,0.845703
Sun May 14 14:39:29 2017,-2.000000,-4.000000,1.000000,-1.000000,-4.000000,2.000000,2.000000,0.000000,-0.312500,0.937500,0.875000,-0.372559,0.338379,0.845703
Sun May 14 14:39:29 2017,-2.000000,-4.000000,1.000000,-1.000000,-4.000000,2.000000,2.000000,0.000000,-0.312500,0.937500,0.875000,-0.372559,0.338379,0.845703
Sun May 14 14:39:29 2017,-6.000000,-11.000000,-6.000000,-2.000000,-1.000000,2.000000,3.000000,-3.000000,-0.625000,0.562500,1.312500,-0.375977,0.340332,0.840332
Sun May 14 14:39:29 2017,2.000000,1.000000,0.000000,-1.000000,-3.000000,-3.000000,-4.000000,1.000000,-0.625000,0.562500,1.312500,-0.375977,0.340332,0.840332
Sun May 14 14:39:29 2017,2.000000,1.000000,0.000000,-1.000000,-3.000000,-3.000000,-4.000000,1.000000,-0.625000,0.562500,1.312500,-0.375977,0.340332,0.840332
Sun May 14 14:39:29 2017,0.000000,4.000000,-2.000000,0.000000,0.000000,-1.000000,0.000000,-2.000000,-0.625000,0.562500,1.312500,-0.375977,0.340332,0.840332
Sun May 14 14:39:29 2017,4.000000,-1.000000,0.000000,2.000000,3.000000,1.000000,1.000000,0.000000,-1.625000,0.062500,0.750000,-0.388184,0.334961,0.844238
Sun May 14 14:39:29 2017,4.000000,-1.000000,0.000000,2.000000,3.000000,1.000000,1.000000,0.000000,-1.625000,0.062500,0.750000,-0.388184,0.334961,0.844238
Sun May 14 14:39:29 2017,-14.000000,3.000000,-3.000000,-2.000000,-2.000000,-3.000000,-4.000000,-2.000000,-1.625000,0.062500,0.750000,-0.388184,0.334961,0.844238
Sun May 14 14:39:29 2017,-14.000000,3.000000,-3.000000,-2.000000,-2.000000,-3.000000,-4.000000,-2.000000,-1.625000,0.062500,0.750000,-0.388184,0.334961,0.844238
Sun May 14 14:39:29 2017,-1.000000,2.000000,-4.000000,0.000000,2.000000,-3.000000,-2.000000,-2.000000,-1.562500,-0.375000,0.875000,-0.384277,0.331055,0.844727
Sun May 14 14:39:29 2017,-1.000000,2.000000,-4.000000,0.000000,2.000000,-3.000000,-2.000000,-2.000000,-1.562500,-0.375000,0.875000,-0.384277,0.331055,0.844727
Sun May 14 14:39:29 2017,-7.000000,-11.000000,0.000000,-1.000000,-2.000000,-3.000000,0.000000,-3.000000,-1.562500,-0.375000,0.875000,-0.384277,0.331055,0.844727
Sun May 14 14:39:29 2017,-10.000000,-10.000000,-5.000000,-1.000000,-1.000000,0.000000,2.000000,-3.000000,-0.875000,-0.125000,1.000000,-0.385254,0.326172,0.845215
Sun May 14 14:39:29 2017,-10.000000,-10.000000,-5.000000,-1.000000,-1.000000,0.000000,2.000000,-3.000000,-0.875000,-0.125000,1.000000,-0.385254,0.326172,0.845215
Sun May 14 14:39:29 2017,5.000000,2.000000,2.000000,-1.000000,0.000000,0.000000,2.000000,0.000000,-0.875000,-0.125000,1.000000,-0.385254,0.326172,0.845215
Sun May 14 14:39:29 2017,-6.000000,-17.000000,-7.000000,-4.000000,0.000000,-2.000000,-1.000000,-2.000000,-0.062500,-0.125000,0.000000,-0.377441,0.328613,0.842773
Sun May 14 14:39:29 2017,-6.000000,-17.000000,-7.000000,-4.000000,0.000000,-2.000000,-1.000000,-2.000000,-0.062500,-0.125000,0.000000,-0.377441,0.328613,0.842773
Sun May 14 14:39:29 2017,-6.000000,-17.000000,-7.000000,-4.000000,0.000000,-2.000000,-1.000000,-2.000000,-0.062500,-0.125000,0.000000,-0.377441,0.328613,0.842773
Sun May 14 14:39:29 2017,1.000000,12.000000,6.000000,-3.000000,-4.000000,-5.000000,-6.000000,0.000000,1.062500,-0.562500,-0.125000,-0.381348,0.329590,0.847656
Sun May 14 14:39:29 2017,1.000000,12.000000,6.000000,-3.000000,-4.000000,-5.000000,-6.000000,0.000000,1.062500,-0.562500,-0.125000,-0.381348,0.329590,0.847656
Sun May 14 14:39:29 2017,1.000000,12.000000,6.000000,-3.000000,-4.000000,-5.000000,-6.000000,0.000000,1.062500,-0.562500,-0.125000,-0.381348,0.329590,0.847656
Sun May 14 14:39:29 2017,1.000000,12.000000,6.000000,-3.000000,-4.000000,-5.000000,-6.000000,0.000000,1.062500,-0.562500,-0.125000,-0.381348,0.329590,0.847656
Sun May 14 14:39:29 2017,3.000000,7.000000,3.000000,1.000000,1.000000,3.000000,6.000000,-2.000000,1.500000,-0.250000,-0.562500,-0.379883,0.335449,0.837402
Sun May 14 14:39:29 2017,3.000000,7.000000,3.000000,1.000000,1.000000,3.000000,6.000000,-2.000000,1.500000,-0.250000,-0.562500,-0.379883,0.335449,0.837402
Sun May 14 14:39:29 2017,3.000000,7.000000,3.000000,1.000000,1.000000,3.000000,6.000000,-2.000000,1.500000,-0.250000,-0.562500,-0.379883,0.335449,0.837402
Sun May 14 14:39:29 2017,3.000000,7.000000,3.000000,1.000000,1.000000,3.000000,6.000000,-2.000000,1.500000,-0.250000,-0.562500,-0.379883,0.335449,0.837402
Sun May 14 14:39:29 2017,0.000000,2.000000,-3.000000,-1.000000,0.000000,-1.000000,-3.000000,-3.000000,1.312500,-0.187500,-0.125000,-0.383789,0.342285,0.840332
Sun May 14 14:39:29 2017,0.000000,2.000000,-3.000000,-1.000000,0.000000,-1.000000,-3.000000,-3.000000,1.312500,-0.187500,-0.125000,-0.383789,0.342285,0.840332
Sun May 14 14:39:29 2017,0.000000,2.000000,-3.000000,-1.000000,0.000000,-1.000000,-3.000000,-3.000000,1.312500,-0.187500,-0.125000,-0.383789,0.342285,0.840332
Sun May 14 14:39:29 2017,-4.000000,-6.000000,-3.000000,-2.000000,1.000000,-1.000000,2.000000,1.000000,-0.250000,-0.312500,0.812500,-0.390625,0.347656,0.837402
Sun May 14 14:39:29 2017,-4.000000,-6.000000,-3.000000,-2.000000,1.000000,-1.000000,2.000000,1.000000,-0.250000,-0.312500,0.812500,-0.390625,0.347656,0.837402
Sun May 14 14:39:29 2017,-4.000000,-6.000000,-3.000000,-2.000000,1.000000,-1.000000,2.000000,1.000000,-0.250000,-0.312500,0.812500,-0.390625,0.347656,0.837402
Sun May 14 14:39:29 2017,0.000000,-2.000000,-2.000000,-1.000000,1.000000,-1.000000,-2.000000,-1.000000,-0.250000,-0.312500,0.812500,-0.390625,0.347656,0.837402
Sun May 14 14:39:29 2017,2.000000,6.000000,0.000000,-3.000000,-5.000000,-1.000000,-2.000000,-2.000000,-1.687500,-0.312500,1.375000,-0.382812,0.342285,0.841309
Sun May 14 14:39:29 2017,2.000000,6.000000,0.000000,-3.000000,-5.000000,-1.000000,-2.000000,-2.000000,-1.687500,-0.312500,1.375000,-0.382812,0.342285,0.841309
Sun May 14 14:39:29 2017,2.000000,6.000000,0.000000,-3.000000,-5.000000,-1.000000,-2.000000,-2.000000,-1.687500,-0.312500,1.375000,-0.382812,0.342285,0.841309
Sun May 14 14:39:29 2017,-5.000000,0.000000,-3.000000,0.000000,0.000000,-3.000000,-3.000000,-3.000000,-1.312500,-0.062500,1.625000,-0.375000,0.336426,0.847656
Sun May 14 14:39:29 2017,7.000000,1.000000,4.000000,2.000000,0.000000,-1.000000,2.000000,4.000000,-1.312500,-0.062500,1.625000,-0.375000,0.336426,0.847656
Sun May 14 14:39:29 2017,7.000000,1.000000,4.000000,2.000000,0.000000,-1.000000,2.000000,4.000000,-1.312500,-0.062500,1.625000,-0.375000,0.336426,0.847656
Sun May 14 14:39:29 2017,0.000000,-2.000000,-1.000000,0.000000,1.000000,1.000000,7.000000,0.000000,0.500000,0.000000,1.500000,-0.377441,0.324707,0.849609
Sun May 14 14:39:29 2017,0.000000,-2.000000,-1.000000,0.000000,1.000000,1.000000,7.000000,0.000000,0.500000,0.000000,1.500000,-0.377441,0.324707,0.849609
Sun May 14 14:39:29 2017,0.000000,-2.000000,-1.000000,0.000000,1.000000,1.000000,7.000000,0.000000,0.500000,0.000000,1.500000,-0.377441,0.324707,0.849609
Sun May 14 14:39:29 2017,-3.000000,-4.000000,2.000000,-1.000000,-3.000000,-1.000000,-2.000000,-2.000000,0.500000,0.000000,1.500000,-0.377441,0.324707,0.849609
Sun May 14 14:39:29 2017,-1.000000,-2.000000,-5.000000,-2.000000,0.000000,0.000000,2.000000,-3.000000,2.312500,-0.062500,1.437500,-0.377441,0.331055,0.846191
Sun May 14 14:39:29 2017,-1.000000,-2.000000,-5.000000,-2.000000,0.000000,0.000000,2.000000,-3.000000,2.312500,-0.062500,1.437500,-0.377441,0.331055,0.846191
Sun May 14 14:39:29 2017,-1.000000,-2.000000,-5.000000,-2.000000,0.000000,0.000000,2.000000,-3.000000,2.312500,-0.062500,1.437500,-0.377441,0.331055,0.846191
Sun May 14 14:39:29 2017,-1.000000,-2.000000,-5.000000,-2.000000,0.000000,0.000000,2.000000,-3.000000,2.312500,-0.062500,1.437500,-0.377441,0.331055,0.846191
Sun May 14 14:39:29 2017,0.000000,-2.000000,-1.000000,0.000000,-1.000000,-2.000000,-7.000000,-1.000000,2.375000,-0.625000,1.125000,-0.378418,0.339355,0.841309
Sun May 14 14:39:29 2017,0.000000,-2.000000,-1.000000,0.000000,-1.000000,-2.000000,-7.000000,-1.000000,2.375000,-0.625000,1.125000,-0.378418,0.339355,0.841309
Sun May 14 14:39:29 2017,1.000000,1.000000,-2.000000,-1.000000,-2.000000,1.000000,-1.000000,-1.000000,0.000000,-0.875000,1.500000,-0.378418,0.345215,0.838867
Sun May 14 14:39:29 2017,-2.000000,2.000000,1.000000,-5.000000,-4.000000,-2.000000,-6.000000,0.000000,0.000000,-0.875000,1.500000,-0.378418,0.345215,0.838867
Sun May 14 14:39:29 2017,-2.000000,2.000000,1.000000,-5.000000,-4.000000,-2.000000,-6.000000,0.000000,0.000000,-0.875000,1.500000,-0.378418,0.345215,0.838867
Sun May 14 14:39:29 2017,-2.000000,2.000000,1.000000,-5.000000,-4.000000,-2.000000,-6.000000,0.000000,0.000000,-0.875000,1.500000,-0.378418,0.345215,0.838867
Sun May 14 14:39:29 2017,-3.000000,-14.000000,-7.000000,-2.000000,-3.000000,0.000000,-4.000000,-2.000000,-1.937500,-0.875000,2.062500,-0.378418,0.340332,0.833496
Sun May 14 14:39:29 2017,-3.000000,-14.000000,-7.000000,-2.000000,-3.000000,0.000000,-4.000000,-2.000000,-1.937500,-0.875000,2.062500,-0.378418,0.340332,0.833496
Sun May 14 14:39:29 2017,-3.000000,-14.000000,-7.000000,-2.000000,-3.000000,0.000000,-4.000000,-2.000000,-1.937500,-0.875000,2.062500,-0.378418,0.340332,0.833496
Sun May 14 14:39:29 2017,-3.000000,-14.000000,-7.000000,-2.000000,-3.000000,0.000000,-4.000000,-2.000000,-1.937500,-0.875000,2.062500,-0.378418,0.340332,0.833496
Sun May 14 14:39:29 2017,0.000000,-3.000000,-1.000000,2.000000,0.000000,0.000000,-2.000000,-1.000000,-1.625000,-0.437500,2.312500,-0.375977,0.327637,0.840820
Sun May 14 14:39:29 2017,0.000000,-3.000000,-1.000000,2.000000,0.000000,0.000000,-2.000000,-1.000000,-1.625000,-0.437500,2.312500,-0.375977,0.327637,0.840820
Sun May 14 14:39:29 2017,-8.000000,-5.000000,-5.000000,-5.000000,-5.000000,-3.000000,-5.000000,-3.000000,-1.625000,-0.437500,2.312500,-0.375977,0.327637,0.840820
Sun May 14 14:39:29 2017,-8.000000,-5.000000,-5.000000,-5.000000,-5.000000,-3.000000,-5.000000,-3.000000,-0.437500,-0.437500,1.625000,-0.380859,0.332520,0.841797
Sun May 14 14:39:29 2017,-2.000000,-3.000000,-3.000000,-1.000000,-2.000000,-2.000000,-2.000000,-3.000000,-0.437500,-0.437500,1.625000,-0.380859,0.332520,0.841797
Sun May 14 14:39:29 2017,-2.000000,-3.000000,-3.000000,-1.000000,-2.000000,-2.000000,-2.000000,-3.000000,-0.437500,-0.437500,1.625000,-0.380859,0.332520,0.841797
Sun May 14 14:39:29 2017,3.000000,6.000000,4.000000,-1.000000,-1.000000,-1.000000,0.000000,1.000000,-0.437500,-0.437500,1.625000,-0.380859,0.332520,0.841797
Sun May 14 14:39:29 2017,-2.000000,2.000000,0.000000,-3.000000,1.000000,-1.000000,-3.000000,-5.000000,0.000000,-0.687500,1.312500,-0.382812,0.328125,0.842285
Sun May 14 14:39:29 2017,-2.000000,2.000000,0.000000,-3.000000,1.000000,-1.000000,-3.000000,-5.000000,0.000000,-0.687500,1.312500,-0.382812,0.328125,0.842285
Sun May 14 14:39:29 2017,-2.000000,2.000000,0.000000,-3.000000,1.000000,-1.000000,-3.000000,-5.000000,0.000000,-0.687500,1.312500,-0.382812,0.328125,0.842285
Sun May 14 14:39:29 2017,8.000000,-10.000000,-5.000000,0.000000,2.000000,0.000000,0.000000,-1.000000,-0.500000,-0.500000,1.250000,-0.374023,0.332031,0.837402
Sun May 14 14:39:29 2017,-6.000000,-10.000000,-7.000000,-4.000000,-4.000000,-3.000000,-3.000000,-1.000000,-0.500000,-0.500000,1.250000,-0.374023,0.332031,0.837402
Sun May 14 14:39:29 2017,-6.000000,-10.000000,-7.000000,-4.000000,-4.000000,-3.000000,-3.000000,-1.000000,-0.500000,-0.500000,1.250000,-0.374023,0.332031,0.837402
Sun May 14 14:39:29 2017,-4.000000,1.000000,-2.000000,-1.000000,2.000000,2.000000,-2.000000,-2.000000,0.062500,-0.375000,1.375000,-0.378418,0.333984,0.845703
Sun May 14 14:39:29 2017,-1.000000,2.000000,1.000000,-1.000000,-2.000000,-1.000000,-1.000000,0.000000,0.062500,-0.375000,1.375000,-0.378418,0.333984,0.845703
Sun May 14 14:39:29 2017,-1.000000,2.000000,1.000000,-1.000000,-2.000000,-1.000000,-1.000000,0.000000,0.062500,-0.375000,1.375000,-0.378418,0.333984,0.845703
Sun May 14 14:39:29 2017,-13.000000,-2.000000,-1.000000,-2.000000,-1.000000,-1.000000,-3.000000,0.000000,0.062500,-0.375000,1.375000,-0.378418,0.333984,0.845703
Sun May 14 14:39:29 2017,3.000000,7.000000,5.000000,2.000000,3.000000,1.000000,1.000000,0.000000,0.937500,-0.312500,0.875000,-0.377441,0.333008,0.842285
Sun May 14 14:39:29 2017,3.000000,7.000000,5.000000,2.000000,3.000000,1.000000,1.000000,0.000000,0.937500,-0.312500,0.875000,-0.377441,0.333008,0.842285
Sun May 14 14:39:29 2017,3.000000,7.000000,5.000000,2.000000,3.000000,1.000000,1.000000,0.000000,0.937500,-0.312500,0.875000,-0.377441,0.333008,0.842285
Sun May 14 14:39:29 2017,-2.000000,3.000000,0.000000,-2.000000,-4.000000,-3.000000,-1.000000,1.000000,1.437500,-0.500000,0.500000,-0.377441,0.336426,0.847168
Sun May 14 14:39:29 2017,1.000000,0.000000,-5.000000,-2.000000,-2.000000,-4.000000,-10.000000,-2.000000,1.437500,-0.500000,0.500000,-0.377441,0.336426,0.847168
Sun May 14 14:39:29 2017,1.000000,0.000000,-5.000000,-2.000000,-2.000000,-4.000000,-10.000000,-2.000000,1.437500,-0.500000,0.500000,-0.377441,0.336426,0.847168
Sun May 14 14:39:30 2017,4.000000,3.000000,3.000000,0.000000,-2.000000,1.000000,1.000000,1.000000,0.437500,-0.500000,0.562500,-0.377930,0.339844,0.841797
Sun May 14 14:39:30 2017,-2.000000,1.000000,1.000000,0.000000,-2.000000,0.000000,1.000000,1.000000,0.437500,-0.500000,0.562500,-0.377930,0.339844,0.841797
Sun May 14 14:39:30 2017,-2.000000,1.000000,1.000000,0.000000,-2.000000,0.000000,1.000000,1.000000,0.437500,-0.500000,0.562500,-0.377930,0.339844,0.841797
Sun May 14 14:39:30 2017,-2.000000,1.000000,1.000000,0.000000,-2.000000,0.000000,1.000000,1.000000,0.437500,-0.500000,0.562500,-0.377930,0.339844,0.841797
Sun May 14 14:39:30 2017,-1.000000,1.000000,1.000000,-1.000000,-3.000000,0.000000,0.000000,0.000000,-1.000000,-0.687500,1.000000,-0.375977,0.343262,0.838867
Sun May 14 14:39:30 2017,-1.000000,1.000000,1.000000,-1.000000,-3.000000,0.000000,0.000000,0.000000,-1.000000,-0.687500,1.000000,-0.375977,0.343262,0.838867
Sun May 14 14:39:30 2017,-1.000000,1.000000,1.000000,-1.000000,-3.000000,0.000000,0.000000,0.000000,-1.000000,-0.687500,1.000000,-0.375977,0.343262,0.838867
Sun May 14 14:39:30 2017,-3.000000,-2.000000,-1.000000,-2.000000,-1.000000,-1.000000,-3.000000,-3.000000,-1.000000,-0.687500,1.000000,-0.375977,0.343262,0.838867
Sun May 14 14:39:30 2017,1.000000,0.000000,2.000000,1.000000,-1.000000,-1.000000,1.000000,3.000000,-1.500000,-0.500000,1.187500,-0.376465,0.333496,0.842285
Sun May 14 14:39:30 2017,1.000000,0.000000,2.000000,1.000000,-1.000000,-1.000000,1.000000,3.000000,-1.500000,-0.500000,1.187500,-0.376465,0.333496,0.842285
Sun May 14 14:39:30 2017,0.000000,-6.000000,-6.000000,-1.000000,-1.000000,-2.000000,-2.000000,-2.000000,-0.375000,-0.437500,1.062500,-0.373047,0.325684,0.837402
Sun May 14 14:39:30 2017,-1.000000,-3.000000,-3.000000,-2.000000,-1.000000,0.000000,1.000000,-2.000000,-0.375000,-0.437500,1.062500,-0.373047,0.325684,0.837402
Sun May 14 14:39:30 2017,-1.000000,-3.000000,-3.000000,-2.000000,-1.000000,0.000000,1.000000,-2.000000,-0.375000,-0.437500,1.062500,-0.373047,0.325684,0.837402
Sun May 14 14:39:30 2017,-1.000000,-3.000000,-3.000000,-2.000000,-1.000000,0.000000,1.000000,-2.000000,-0.375000,-0.437500,1.062500,-0.373047,0.325684,0.837402
Sun May 14 14:39:30 2017,18.000000,13.000000,4.000000,2.000000,2.000000,-3.000000,-2.000000,-2.000000,0.562500,-0.375000,0.687500,-0.368652,0.330566,0.845215
Sun May 14 14:39:30 2017,18.000000,13.000000,4.000000,2.000000,2.000000,-3.000000,-2.000000,-2.000000,0.562500,-0.375000,0.687500,-0.368652,0.330566,0.845215
Sun May 14 14:39:30 2017,18.000000,13.000000,4.000000,2.000000,2.000000,-3.000000,-2.000000,-2.000000,0.562500,-0.375000,0.687500,-0.368652,0.330566,0.845215
Sun May 14 14:39:30 2017,18.000000,13.000000,4.000000,2.000000,2.000000,-3.000000,-2.000000,-2.000000,0.562500,-0.375000,0.687500,-0.368652,0.330566,0.845215
Sun May 14 14:39:30 2017,-9.000000,-3.000000,-2.000000,-3.000000,1.000000,1.000000,0.000000,-1.000000,1.250000,-0.187500,0.500000,-0.374512,0.336914,0.840820
Sun May 14 14:39:30 2017,-9.000000,-3.000000,-2.000000,-3.000000,1.000000,1.000000,0.000000,-1.000000,1.250000,-0.187500,0.500000,-0.374512,0.336914,0.840820
Sun May 14 14:39:30 2017,1.000000,1.000000,-6.000000,-2.000000,1.000000,0.000000,-3.000000,-2.000000,0.750000,-0.187500,0.500000,-0.378906,0.338867,0.842285
Sun May 14 14:39:30 2017,-5.000000,-4.000000,0.000000,0.000000,-4.000000,-2.000000,0.000000,0.000000,0.750000,-0.187500,0.500000,-0.378906,0.338867,0.842285
Sun May 14 14:39:30 2017,-5.000000,-4.000000,0.000000,0.000000,-4.000000,-2.000000,0.000000,0.000000,0.750000,-0.187500,0.500000,-0.378906,0.338867,0.842285
Sun May 14 14:39:30 2017,-5.000000,-4.000000,0.000000,0.000000,-4.000000,-2.000000,0.000000,0.000000,0.750000,-0.187500,0.500000,-0.378906,0.338867,0.842285
Sun May 14 14:39:30 2017,1.000000,-3.000000,1.000000,2.000000,1.000000,3.000000,1.000000,4.000000,0.062500,-0.250000,0.437500,-0.379395,0.335449,0.843750
Sun May 14 14:39:30 2017,1.000000,-3.000000,1.000000,2.000000,1.000000,3.000000,1.000000,4.000000,0.062500,-0.250000,0.437500,-0.379395,0.335449,0.843750
Sun May 14 14:39:30 2017,1.000000,-3.000000,1.000000,2.000000,1.000000,3.000000,1.000000,4.000000,0.062500,-0.250000,0.437500,-0.379395,0.335449,0.843750
Sun May 14 14:39:30 2017,1.000000,-3.000000,1.000000,2.000000,1.000000,3.000000,1.000000,4.000000,0.062500,-0.250000,0.437500,-0.379395,0.335449,0.843750
Sun May 14 14:39:30 2017,-1.000000,-3.000000,-3.000000,-2.000000,-1.000000,-1.000000,-2.000000,-2.000000,-0.437500,-0.375000,0.500000,-0.377441,0.336426,0.842285
Sun May 14 14:39:30 2017,-1.000000,-3.000000,-3.000000,-2.000000,-1.000000,-1.000000,-2.000000,-2.000000,-0.437500,-0.375000,0.500000,-0.377441,0.336426,0.842285
Sun May 14 14:39:30 2017,0.000000,3.000000,4.000000,2.000000,-2.000000,-2.000000,-3.000000,1.000000,-0.437500,-0.375000,0.500000,-0.377441,0.336426,0.842285
Sun May 14 14:39:30 2017,0.000000,3.000000,4.000000,2.000000,-2.000000,-2.000000,-3.000000,1.000000,-0.437500,-0.375000,0.500000,-0.377441,0.336426,0.842285
Sun May 14 14:39:30 2017,-2.000000,-7.000000,-4.000000,-1.000000,2.000000,0.000000,0.000000,-1.000000,-0.500000,-0.437500,0.375000,-0.368652,0.343750,0.839355
Sun May 14 14:39:30 2017,-2.000000,-7.000000,-4.000000,-1.000000,2.000000,0.000000,0.000000,-1.000000,-0.500000,-0.437500,0.375000,-0.368652,0.343750,0.839355
Sun May 14 14:39:30 2017,-2.000000,-7.000000,-4.000000,-1.000000,2.000000,0.000000,0.000000,-1.000000,-0.500000,-0.437500,0.375000,-0.368652,0.343750,0.839355
Sun May 14 14:39:30 2017,-4.000000,4.000000,3.000000,-2.000000,-1.000000,-3.000000,0.000000,-2.000000,0.000000,-0.250000,0.812500,-0.370117,0.337891,0.845215
Sun May 14 14:39:30 2017,-4.000000,4.000000,3.000000,-2.000000,-1.000000,-3.000000,0.000000,-2.000000,0.000000,-0.250000,0.812500,-0.370117,0.337891,0.845215
Sun May 14 14:39:30 2017,-4.000000,4.000000,3.000000,-2.000000,-1.000000,-3.000000,0.000000,-2.000000,0.000000,-0.250000,0.812500,-0.370117,0.337891,0.845215
Sun May 14 14:39:30 2017,1.000000,-2.000000,-2.000000,0.000000,0.000000,0.000000,0.000000,1.000000,0.000000,-0.250000,0.812500,-0.370117,0.337891,0.845215
Sun May 14 14:39:30 2017,-11.000000,-3.000000,-1.000000,-2.000000,-2.000000,-5.000000,-3.000000,2.000000,0.500000,-0.437500,0.750000,-0.373047,0.340820,0.840332
Sun May 14 14:39:30 2017,-11.000000,-3.000000,-1.000000,-2.000000,-2.000000,-5.000000,-3.000000,2.000000,0.500000,-0.437500,0.750000,-0.373047,0.340820,0.840332
Sun May 14 14:39:30 2017,-3.000000,-1.000000,-3.000000,-2.000000,-1.000000,0.000000,-3.000000,-4.000000,0.500000,-0.437500,0.750000,-0.373047,0.340820,0.840332
Sun May 14 14:39:30 2017,3.000000,2.000000,1.000000,2.000000,-3.000000,-2.000000,1.000000,-2.000000,0.687500,-0.500000,0.750000,-0.377930,0.339355,0.842285
Sun May 14 14:39:30 2017,3.000000,2.000000,1.000000,2.000000,-3.000000,-2.000000,1.000000,-2.000000,0.687500,-0.500000,0.750000,-0.377930,0.339355,0.842285
Sun May 14 14:39:30 2017,3.000000,2.000000,1.000000,2.000000,-3.000000,-2.000000,1.000000,-2.000000,0.687500,-0.500000,0.750000,-0.377930,0.339355,0.842285
Sun May 14 14:39:30 2017,-4.000000,7.000000,3.000000,0.000000,0.000000,3.000000,1.000000,-3.000000,0.187500,-0.562500,0.812500,-0.379395,0.336426,0.837402
Sun May 14 14:39:30 2017,-4.000000,7.000000,3.000000,0.000000,0.000000,3.000000,1.000000,-3.000000,0.187500,-0.562500,0.812500,-0.379395,0.336426,0.837402
Sun May 14 14:39:30 2017,-4.000000,7.000000,3.000000,0.000000,0.000000,3.000000,1.000000,-3.000000,0.187500,-0.562500,0.812500,-0.379395,0.336426,0.837402
Sun May 14 14:39:30 2017,-4.000000,7.000000,3.000000,0.000000,0.000000,3.000000,1.000000,-3.000000,0.187500,-0.562500,0.812500,-0.379395,0.336426,0.837402
Sun May 14 14:39:30 2017,1.000000,-8.000000,-8.000000,-4.000000,-3.000000,0.000000,0.000000,0.000000,0.187500,-0.500000,0.875000,-0.374023,0.337402,0.845215
Sun May 14 14:39:30 2017,1.000000,-8.000000,-8.000000,-4.000000,-3.000000,0.000000,0.000000,0.000000,0.187500,-0.500000,0.875000,-0.374023,0.337402,0.845215
Sun May 14 14:39:30 2017,1.000000,4.000000,2.000000,-1.000000,0.000000,2.000000,3.000000,1.000000,0.187500,-0.500000,0.875000,-0.374023,0.337402,0.845215
Sun May 14 14:39:30 2017,1.000000,4.000000,2.000000,-1.000000,0.000000,2.000000,3.000000,1.000000,0.312500,-0.562500,0.937500,-0.373535,0.334961,0.843262
Sun May 14 14:39:30 2017,-2.000000,-5.000000,-3.000000,0.000000,0.000000,-3.000000,-2.000000,-2.000000,0.312500,-0.562500,0.937500,-0.373535,0.334961,0.843262
Sun May 14 14:39:30 2017,-2.000000,-5.000000,-3.000000,0.000000,0.000000,-3.000000,-2.000000,-2.000000,0.312500,-0.562500,0.937500,-0.373535,0.334961,0.843262
Sun May 14 14:39:30 2017,-2.000000,1.000000,-4.000000,-3.000000,-2.000000,-3.000000,-1.000000,-1.000000,0.375000,-0.562500,0.937500,-0.371582,0.338867,0.838867
Sun May 14 14:39:30 2017,1.000000,1.000000,-1.000000,-2.000000,-1.000000,-3.000000,0.000000,-1.000000,0.375000,-0.562500,0.937500,-0.371582,0.338867,0.838867
Sun May 14 14:39:30 2017,1.000000,1.000000,-1.000000,-2.000000,-1.000000,-3.000000,0.000000,-1.000000,0.375000,-0.562500,0.937500,-0.371582,0.338867,0.838867
Sun May 14 14:39:30 2017,1.000000,1.000000,-1.000000,-2.000000,-1.000000,-3.000000,0.000000,-1.000000,0.375000,-0.562500,0.937500,-0.371582,0.338867,0.838867
Sun May 14 14:39:30 2017,2.000000,-1.000000,2.000000,3.000000,1.000000,0.000000,0.000000,1.000000,0.062500,-0.562500,0.875000,-0.378418,0.342773,0.844727
Sun May 14 14:39:30 2017,2.000000,-1.000000,2.000000,3.000000,1.000000,0.000000,0.000000,1.000000,0.062500,-0.562500,0.875000,-0.378418,0.342773,0.844727
Sun May 14 14:39:30 2017,-4.000000,-5.000000,-3.000000,1.000000,1.000000,-1.000000,0.000000,0.000000,0.062500,-0.562500,0.875000,-0.378418,0.342773,0.844727
Sun May 14 14:39:30 2017,-4.000000,-5.000000,-3.000000,1.000000,1.000000,-1.000000,0.000000,0.000000,0.062500,-0.562500,0.875000,-0.378418,0.342773,0.844727
Sun May 14 14:39:30 2017,-2.000000,-2.000000,-4.000000,-2.000000,0.000000,1.000000,-2.000000,-2.000000,-0.250000,-0.500000,0.875000,-0.370117,0.340332,0.837891
Sun May 14 14:39:30 2017,-2.000000,-2.000000,-4.000000,-2.000000,0.000000,1.000000,-2.000000,-2.000000,-0.250000,-0.500000,0.875000,-0.370117,0.340332,0.837891
Sun May 14 14:39:30 2017,1.000000,3.000000,1.000000,-1.000000,-4.000000,-3.000000,1.000000,2.000000,-0.250000,-0.500000,0.875000,-0.370117,0.340332,0.837891
Sun May 14 14:39:30 2017,1.000000,16.000000,2.000000,2.000000,-2.000000,0.000000,0.000000,-2.000000,-0.062500,-0.250000,0.937500,-0.372559,0.337891,0.837402
Sun May 14 14:39:30 2017,1.000000,16.000000,2.000000,2.000000,-2.000000,0.000000,0.000000,-2.000000,-0.062500,-0.250000,0.937500,-0.372559,0.337891,0.837402
Sun May 14 14:39:30 2017,1.000000,16.000000,2.000000,2.000000,-2.000000,0.000000,0.000000,-2.000000,-0.062500,-0.250000,0.937500,-0.372559,0.337891,0.837402
Sun May 14 14:39:30 2017,0.000000,-2.000000,-1.000000,-3.000000,-4.000000,-1.000000,0.000000,-1.000000,0.562500,-0.250000,1.125000,-0.370605,0.340820,0.837402
Sun May 14 14:39:30 2017,0.000000,-2.000000,-1.000000,-3.000000,-4.000000,-1.000000,0.000000,-1.000000,0.562500,-0.250000,1.125000,-0.370605,0.340820,0.837402
Sun May 14 14:39:30 2017,-5.000000,1.000000,0.000000,0.000000,0.000000,-2.000000,-4.000000,3.000000,0.562500,-0.250000,1.125000,-0.370605,0.340820,0.837402
Sun May 14 14:39:30 2017,3.000000,4.000000,-4.000000,-2.000000,-1.000000,-1.000000,0.000000,0.000000,0.562500,-0.250000,1.125000,-0.370605,0.340820,0.837402
Sun May 14 14:39:30 2017,-4.000000,-3.000000,3.000000,1.000000,1.000000,-1.000000,-1.000000,3.000000,0.437500,-0.187500,0.875000,-0.378418,0.340820,0.841309
Sun May 14 14:39:30 2017,-4.000000,-3.000000,3.000000,1.000000,1.000000,-1.000000,-1.000000,3.000000,0.437500,-0.187500,0.875000,-0.378418,0.340820,0.841309
Sun May 14 14:39:30 2017,-4.000000,-3.000000,3.000000,1.000000,1.000000,-1.000000,-1.000000,3.000000,0.437500,-0.187500,0.875000,-0.378418,0.340820,0.841309
Sun May 14 14:39:30 2017,3.000000,-4.000000,0.000000,0.000000,0.000000,0.000000,1.000000,3.000000,0.062500,-0.375000,0.750000,-0.375977,0.339844,0.842773
Sun May 14 14:39:30 2017,3.000000,-4.000000,0.000000,0.000000,0.000000,0.000000,1.000000,3.000000,0.062500,-0.375000,0.750000,-0.375977,0.339844,0.842773
Sun May 14 14:39:30 2017,3.000000,-4.000000,0.000000,0.000000,0.000000,0.000000,1.000000,3.000000,0.062500,-0.375000,0.750000,-0.375977,0.339844,0.842773
Sun May 14 14:39:30 2017,3.000000,-4.000000,0.000000,0.000000,0.000000,0.000000,1.000000,3.000000,0.062500,-0.375000,0.750000,-0.375977,0.339844,0.842773
Sun May 14 14:39:30 2017,3.000000,-4.000000,0.000000,0.000000,0.000000,0.000000,1.000000,3.000000,0.062500,-0.375000,0.750000,-0.375977,0.339844,0.842773
Sun May 14 14:39:30 2017,-2.000000,-5.000000,-2.000000,0.000000,-1.000000,-1.000000,0.000000,-2.000000,-0.937500,-0.375000,0.875000,-0.374023,0.341309,0.846680
Sun May 14 14:39:30 2017,2.000000,3.000000,3.000000,3.000000,-2.000000,-1.000000,-2.000000,2.000000,-0.937500,-0.375000,0.875000,-0.374023,0.341309,0.846680
Sun May 14 14:39:30 2017,-3.000000,-4.000000,-4.000000,-2.000000,-2.000000,0.000000,-3.000000,-3.000000,-0.875000,-0.437500,1.062500,-0.373047,0.339844,0.847168
Sun May 14 14:39:30 2017,-3.000000,-4.000000,-4.000000,-2.000000,-2.000000,0.000000,-3.000000,-3.000000,-0.875000,-0.437500,1.062500,-0.373047,0.339844,0.847168
Sun May 14 14:39:30 2017,-3.000000,-4.000000,-4.000000,-2.000000,-2.000000,0.000000,-3.000000,-3.000000,-0.875000,-0.437500,1.062500,-0.373047,0.339844,0.847168
Sun May 14 14:39:30 2017,-1.000000,7.000000,4.000000,1.000000,-2.000000,-2.000000,-2.000000,-3.000000,0.062500,-0.312500,0.750000,-0.376953,0.333496,0.834961
Sun May 14 14:39:30 2017,-1.000000,7.000000,4.000000,1.000000,-2.000000,-2.000000,-2.000000,-3.000000,0.062500,-0.312500,0.750000,-0.376953,0.333496,0.834961
Sun May 14 14:39:30 2017,-1.000000,7.000000,4.000000,1.000000,-2.000000,-2.000000,-2.000000,-3.000000,0.062500,-0.312500,0.750000,-0.376953,0.333496,0.834961
Sun May 14 14:39:30 2017,-1.000000,7.000000,4.000000,1.000000,-2.000000,-2.000000,-2.000000,-3.000000,0.062500,-0.312500,0.750000,-0.376953,0.333496,0.834961
Sun May 14 14:39:30 2017,0.000000,-13.000000,-5.000000,-1.000000,0.000000,0.000000,-1.000000,2.000000,0.687500,-0.187500,0.375000,-0.372559,0.335938,0.844727
Sun May 14 14:39:30 2017,0.000000,-13.000000,-5.000000,-1.000000,0.000000,0.000000,-1.000000,2.000000,0.687500,-0.187500,0.375000,-0.372559,0.335938,0.844727
Sun May 14 14:39:30 2017,-8.000000,-6.000000,0.000000,-1.000000,-1.000000,-3.000000,-4.000000,-7.000000,0.687500,-0.187500,0.375000,-0.372559,0.335938,0.844727
Sun May 14 14:39:30 2017,-8.000000,-6.000000,0.000000,-1.000000,-1.000000,-3.000000,-4.000000,-7.000000,0.687500,-0.187500,0.375000,-0.372559,0.335938,0.844727
Sun May 14 14:39:30 2017,8.000000,-7.000000,-2.000000,-2.000000,1.000000,0.000000,-2.000000,-1.000000,0.875000,-0.312500,0.125000,-0.372070,0.338867,0.839844
Sun May 14 14:39:30 2017,8.000000,-7.000000,-2.000000,-2.000000,1.000000,0.000000,-2.000000,-1.000000,0.875000,-0.312500,0.125000,-0.372070,0.338867,0.839844
Sun May 14 14:39:30 2017,-4.000000,-5.000000,-3.000000,-4.000000,-3.000000,-3.000000,-2.000000,-5.000000,0.375000,-0.187500,0.125000,-0.371094,0.341309,0.837402
Sun May 14 14:39:30 2017,-4.000000,3.000000,-3.000000,-3.000000,1.000000,-2.000000,-1.000000,-3.000000,0.375000,-0.187500,0.125000,-0.371094,0.341309,0.837402
Sun May 14 14:39:30 2017,-4.000000,3.000000,-3.000000,-3.000000,1.000000,-2.000000,-1.000000,-3.000000,0.375000,-0.187500,0.125000,-0.371094,0.341309,0.837402
Sun May 14 14:39:30 2017,-4.000000,3.000000,-3.000000,-3.000000,1.000000,-2.000000,-1.000000,-3.000000,0.375000,-0.187500,0.125000,-0.371094,0.341309,0.837402
Sun May 14 14:39:30 2017,-3.000000,0.000000,-3.000000,-2.000000,-1.000000,-2.000000,0.000000,-3.000000,-0.375000,0.062500,0.187500,-0.370605,0.341309,0.840332
Sun May 14 14:39:30 2017,-3.000000,0.000000,-3.000000,-2.000000,-1.000000,-2.000000,0.000000,-3.000000,-0.375000,0.062500,0.187500,-0.370605,0.341309,0.840332
Sun May 14 14:39:30 2017,3.000000,1.000000,-1.000000,0.000000,0.000000,0.000000,-1.000000,2.000000,-0.375000,0.062500,0.187500,-0.370605,0.341309,0.840332
Sun May 14 14:39:30 2017,3.000000,1.000000,-1.000000,0.000000,0.000000,0.000000,-1.000000,2.000000,-0.375000,0.062500,0.187500,-0.370605,0.341309,0.840332
Sun May 14 14:39:30 2017,-4.000000,-6.000000,-5.000000,-3.000000,-3.000000,-2.000000,-1.000000,-4.000000,-1.000000,0.125000,0.000000,-0.372559,0.337402,0.834473
Sun May 14 14:39:30 2017,-4.000000,-6.000000,-5.000000,-3.000000,-3.000000,-2.000000,-1.000000,-4.000000,-1.000000,0.125000,0.000000,-0.372559,0.337402,0.834473
Sun May 14 14:39:30 2017,-3.000000,-3.000000,-5.000000,-1.000000,0.000000,0.000000,-1.000000,-5.000000,-1.000000,0.125000,0.000000,-0.372559,0.337402,0.834473
Sun May 14 14:39:30 2017,-2.000000,-1.000000,2.000000,-2.000000,-3.000000,1.000000,-3.000000,-3.000000,-1.000000,0.375000,-0.375000,-0.375977,0.335938,0.844727
Sun May 14 14:39:30 2017,-2.000000,-1.000000,2.000000,-2.000000,-3.000000,1.000000,-3.000000,-3.000000,-1.000000,0.375000,-0.375000,-0.375977,0.335938,0.844727
Sun May 14 14:39:30 2017,-2.000000,-1.000000,2.000000,-2.000000,-3.000000,1.000000,-3.000000,-3.000000,-1.000000,0.375000,-0.375000,-0.375977,0.335938,0.844727
Sun May 14 14:39:30 2017,-3.000000,5.000000,-1.000000,-3.000000,-3.000000,-1.000000,-2.000000,-1.000000,0.125000,0.750000,-0.437500,-0.369141,0.333008,0.844727
Sun May 14 14:39:30 2017,1.000000,-4.000000,-3.000000,2.000000,0.000000,1.000000,-3.000000,1.000000,0.125000,0.750000,-0.437500,-0.369141,0.333008,0.844727
Sun May 14 14:39:30 2017,1.000000,-4.000000,-3.000000,2.000000,0.000000,1.000000,-3.000000,1.000000,0.125000,0.750000,-0.437500,-0.369141,0.333008,0.844727
Sun May 14 14:39:30 2017,1.000000,-4.000000,-3.000000,2.000000,0.000000,1.000000,-3.000000,1.000000,0.125000,0.750000,-0.437500,-0.369141,0.333008,0.844727
Sun May 14 14:39:30 2017,-3.000000,-3.000000,-5.000000,-1.000000,-3.000000,0.000000,0.000000,-1.000000,0.875000,0.562500,-0.750000,-0.375000,0.333984,0.845215
Sun May 14 14:39:30 2017,-3.000000,-3.000000,-5.000000,-1.000000,-3.000000,0.000000,0.000000,-1.000000,0.875000,0.562500,-0.750000,-0.375000,0.333984,0.845215
Sun May 14 14:39:30 2017,-3.000000,-3.000000,-5.000000,-1.000000,-3.000000,0.000000,0.000000,-1.000000,0.875000,0.562500,-0.750000,-0.375000,0.333984,0.845215
Sun May 14 14:39:30 2017,0.000000,3.000000,-2.000000,-4.000000,0.000000,-3.000000,0.000000,-3.000000,0.687500,0.562500,-0.937500,-0.373535,0.338867,0.844727
Sun May 14 14:39:30 2017,0.000000,3.000000,-2.000000,-4.000000,0.000000,-3.000000,0.000000,-3.000000,0.687500,0.562500,-0.937500,-0.373535,0.338867,0.844727
Sun May 14 14:39:30 2017,0.000000,3.000000,-2.000000,-4.000000,0.000000,-3.000000,0.000000,-3.000000,0.687500,0.562500,-0.937500,-0.373535,0.338867,0.844727
Sun May 14 14:39:30 2017,-2.000000,-4.000000,1.000000,0.000000,1.000000,2.000000,6.000000,-1.000000,0.687500,0.562500,-0.937500,-0.373535,0.338867,0.844727
Sun May 14 14:39:30 2017,-2.000000,-4.000000,1.000000,0.000000,1.000000,2.000000,6.000000,-1.000000,0.687500,0.562500,-0.937500,-0.373535,0.338867,0.844727
Sun May 14 14:39:30 2017,1.000000,-2.000000,0.000000,-3.000000,-2.000000,-3.000000,-2.000000,1.000000,-0.812500,0.375000,-0.500000,-0.374512,0.345703,0.837402
Sun May 14 14:39:30 2017,1.000000,-2.000000,0.000000,-3.000000,-2.000000,-3.000000,-2.000000,1.000000,-0.812500,0.375000,-0.500000,-0.374512,0.345703,0.837402
Sun May 14 14:39:30 2017,1.000000,-2.000000,0.000000,-3.000000,-2.000000,-3.000000,-2.000000,1.000000,-0.812500,0.375000,-0.500000,-0.374512,0.345703,0.837402
Sun May 14 14:39:30 2017,2.000000,2.000000,1.000000,-3.000000,-3.000000,-4.000000,-2.000000,-1.000000,-1.812500,0.500000,-0.312500,-0.370605,0.337402,0.836914
Sun May 14 14:39:30 2017,2.000000,2.000000,1.000000,-3.000000,-3.000000,-4.000000,-2.000000,-1.000000,-1.812500,0.500000,-0.312500,-0.370605,0.337402,0.836914
Sun May 14 14:39:30 2017,-11.000000,-6.000000,1.000000,-2.000000,0.000000,-1.000000,1.000000,0.000000,-1.312500,0.750000,-0.375000,-0.375977,0.333496,0.840332
Sun May 14 14:39:30 2017,4.000000,6.000000,4.000000,3.000000,3.000000,-1.000000,0.000000,0.000000,-1.312500,0.750000,-0.375000,-0.375977,0.333496,0.840332
Sun May 14 14:39:30 2017,4.000000,6.000000,4.000000,3.000000,3.000000,-1.000000,0.000000,0.000000,-1.312500,0.750000,-0.375000,-0.375977,0.333496,0.840332
Sun May 14 14:39:30 2017,4.000000,6.000000,4.000000,3.000000,3.000000,-1.000000,0.000000,0.000000,-1.312500,0.750000,-0.375000,-0.375977,0.333496,0.840332
Sun May 14 14:39:30 2017,-3.000000,-2.000000,-3.000000,-3.000000,-3.000000,-1.000000,5.000000,-3.000000,-0.625000,0.812500,-0.562500,-0.375977,0.334961,0.842773
Sun May 14 14:39:30 2017,-3.000000,-2.000000,-3.000000,-3.000000,-3.000000,-1.000000,5.000000,-3.000000,-0.625000,0.812500,-0.562500,-0.375977,0.334961,0.842773
Sun May 14 14:39:30 2017,-3.000000,-2.000000,-3.000000,-3.000000,-3.000000,-1.000000,5.000000,-3.000000,-0.625000,0.812500,-0.562500,-0.375977,0.334961,0.842773
Sun May 14 14:39:30 2017,-3.000000,-2.000000,-3.000000,-3.000000,-3.000000,-1.000000,5.000000,-3.000000,-0.625000,0.812500,-0.562500,-0.375977,0.334961,0.842773
Sun May 14 14:39:30 2017,-5.000000,-2.000000,-2.000000,-2.000000,-2.000000,1.000000,-2.000000,-1.000000,-0.312500,0.437500,-1.125000,-0.377930,0.335449,0.844238
Sun May 14 14:39:30 2017,-5.000000,-2.000000,-2.000000,-2.000000,-2.000000,1.000000,-2.000000,-1.000000,-0.312500,0.437500,-1.125000,-0.377930,0.335449,0.844238
Sun May 14 14:39:30 2017,2.000000,-1.000000,-2.000000,1.000000,0.000000,0.000000,-5.000000,-8.000000,-0.875000,0.500000,-1.437500,-0.378906,0.335938,0.846680
Sun May 14 14:39:30 2017,-2.000000,-2.000000,-1.000000,-2.000000,0.000000,1.000000,7.000000,0.000000,-0.875000,0.500000,-1.437500,-0.378906,0.335938,0.846680
Sun May 14 14:39:30 2017,-2.000000,3.000000,1.000000,-1.000000,0.000000,-2.000000,-2.000000,1.000000,-0.875000,0.500000,-1.437500,-0.378906,0.335938,0.846680
Sun May 14 14:39:30 2017,-2.000000,3.000000,1.000000,-1.000000,0.000000,-2.000000,-2.000000,1.000000,-0.875000,0.500000,-1.437500,-0.378906,0.335938,0.846680
Sun May 14 14:39:30 2017,-1.000000,8.000000,3.000000,-2.000000,0.000000,-1.000000,-1.000000,-1.000000,-0.562500,0.312500,-0.937500,-0.372559,0.339844,0.844238
Sun May 14 14:39:30 2017,-2.000000,0.000000,4.000000,3.000000,0.000000,0.000000,-3.000000,1.000000,-0.562500,0.312500,-0.937500,-0.372559,0.339844,0.844238
Sun May 14 14:39:30 2017,-2.000000,0.000000,4.000000,3.000000,0.000000,0.000000,-3.000000,1.000000,-0.562500,0.312500,-0.937500,-0.372559,0.339844,0.844238
Sun May 14 14:39:30 2017,-2.000000,0.000000,4.000000,3.000000,0.000000,0.000000,-3.000000,1.000000,-0.562500,0.312500,-0.937500,-0.372559,0.339844,0.844238
Sun May 14 14:39:30 2017,0.000000,-4.000000,-2.000000,-3.000000,-1.000000,1.000000,7.000000,1.000000,-0.375000,0.062500,-0.500000,-0.374512,0.336426,0.842285
Sun May 14 14:39:30 2017,0.000000,-4.000000,-2.000000,-3.000000,-1.000000,1.000000,7.000000,1.000000,-0.375000,0.062500,-0.500000,-0.374512,0.336426,0.842285
Sun May 14 14:39:30 2017,0.000000,-4.000000,-2.000000,-3.000000,-1.000000,1.000000,7.000000,1.000000,-0.375000,0.062500,-0.500000,-0.374512,0.336426,0.842285
Sun May 14 14:39:30 2017,1.000000,4.000000,3.000000,-3.000000,-5.000000,-4.000000,-1.000000,-1.000000,-0.625000,-0.062500,0.000000,-0.374023,0.343750,0.839844
Sun May 14 14:39:30 2017,-7.000000,-9.000000,-7.000000,-1.000000,-2.000000,-3.000000,-9.000000,-6.000000,-0.625000,-0.062500,0.000000,-0.374023,0.343750,0.839844
Sun May 14 14:39:30 2017,-7.000000,-9.000000,-7.000000,-1.000000,-2.000000,-3.000000,-9.000000,-6.000000,-0.625000,-0.062500,0.000000,-0.374023,0.343750,0.839844
Sun May 14 14:39:30 2017,-7.000000,-9.000000,-7.000000,-1.000000,-2.000000,-3.000000,-9.000000,-6.000000,-0.625000,-0.062500,0.000000,-0.374023,0.343750,0.839844
Sun May 14 14:39:30 2017,1.000000,2.000000,-4.000000,-3.000000,-2.000000,-1.000000,0.000000,-4.000000,-1.812500,-0.062500,-0.250000,-0.379883,0.345215,0.839844
Sun May 14 14:39:30 2017,1.000000,2.000000,-4.000000,-3.000000,-2.000000,-1.000000,0.000000,-4.000000,-1.812500,-0.062500,-0.250000,-0.379883,0.345215,0.839844
Sun May 14 14:39:30 2017,1.000000,2.000000,-4.000000,-3.000000,-2.000000,-1.000000,0.000000,-4.000000,-1.812500,-0.062500,-0.250000,-0.379883,0.345215,0.839844
Sun May 14 14:39:30 2017,-3.000000,-4.000000,-6.000000,-2.000000,0.000000,-1.000000,-2.000000,-2.000000,-1.812500,-0.062500,-0.250000,-0.379883,0.345215,0.839844
Sun May 14 14:39:30 2017,0.000000,2.000000,1.000000,-3.000000,-3.000000,-2.000000,-1.000000,-1.000000,-2.187500,-0.187500,0.125000,-0.373535,0.334473,0.840820
Sun May 14 14:39:30 2017,0.000000,2.000000,1.000000,-3.000000,-3.000000,-2.000000,-1.000000,-1.000000,-2.187500,-0.187500,0.125000,-0.373535,0.334473,0.840820
Sun May 14 14:39:30 2017,-3.000000,-5.000000,-2.000000,0.000000,1.000000,2.000000,-1.000000,-1.000000,-0.562500,0.437500,0.125000,-0.374023,0.324707,0.836426
Sun May 14 14:39:30 2017,2.000000,2.000000,4.000000,3.000000,1.000000,1.000000,-2.000000,2.000000,-0.562500,0.437500,0.125000,-0.374023,0.324707,0.836426
Sun May 14 14:39:30 2017,2.000000,2.000000,4.000000,3.000000,1.000000,1.000000,-2.000000,2.000000,-0.562500,0.437500,0.125000,-0.374023,0.324707,0.836426
Sun May 14 14:39:30 2017,2.000000,2.000000,4.000000,3.000000,1.000000,1.000000,-2.000000,2.000000,-0.562500,0.437500,0.125000,-0.374023,0.324707,0.836426
Sun May 14 14:39:30 2017,2.000000,4.000000,0.000000,-1.000000,-1.000000,0.000000,5.000000,0.000000,0.562500,0.562500,-0.312500,-0.378906,0.324707,0.842285
Sun May 14 14:39:30 2017,2.000000,4.000000,0.000000,-1.000000,-1.000000,0.000000,5.000000,0.000000,0.562500,0.562500,-0.312500,-0.378906,0.324707,0.842285
Sun May 14 14:39:30 2017,2.000000,4.000000,0.000000,-1.000000,-1.000000,0.000000,5.000000,0.000000,0.562500,0.562500,-0.312500,-0.378906,0.324707,0.842285
Sun May 14 14:39:30 2017,2.000000,4.000000,0.000000,-1.000000,-1.000000,0.000000,5.000000,0.000000,0.562500,0.562500,-0.312500,-0.378906,0.324707,0.842285
Sun May 14 14:39:30 2017,-2.000000,-5.000000,-6.000000,-1.000000,-2.000000,-3.000000,0.000000,-4.000000,0.187500,0.375000,-0.812500,-0.378418,0.332031,0.844727
Sun May 14 14:39:30 2017,-2.000000,-5.000000,-6.000000,-1.000000,-2.000000,-3.000000,0.000000,-4.000000,0.187500,0.375000,-0.812500,-0.378418,0.332031,0.844727
Sun May 14 14:39:30 2017,2.000000,7.000000,0.000000,2.000000,-2.000000,-1.000000,-3.000000,1.000000,-0.687500,0.375000,-0.500000,-0.374512,0.338867,0.835449
Sun May 14 14:39:30 2017,-1.000000,2.000000,1.000000,-2.000000,1.000000,-1.000000,-3.000000,0.000000,-0.687500,0.375000,-0.500000,-0.374512,0.338867,0.835449
Sun May 14 14:39:30 2017,-1.000000,2.000000,1.000000,-2.000000,1.000000,-1.000000,-3.000000,0.000000,-0.687500,0.375000,-0.500000,-0.374512,0.338867,0.835449
Sun May 14 14:39:30 2017,-1.000000,2.000000,1.000000,-2.000000,1.000000,-1.000000,-3.000000,0.000000,-0.687500,0.375000,-0.500000,-0.374512,0.338867,0.835449
Sun May 14 14:39:31 2017,-2.000000,-1.000000,-1.000000,-1.000000,-1.000000,0.000000,3.000000,1.000000,-1.375000,0.562500,-0.312500,-0.376953,0.334473,0.839355
Sun May 14 14:39:31 2017,-2.000000,-1.000000,-1.000000,-1.000000,-1.000000,0.000000,3.000000,1.000000,-1.375000,0.562500,-0.312500,-0.376953,0.334473,0.839355
Sun May 14 14:39:31 2017,-2.000000,-1.000000,-1.000000,-1.000000,-1.000000,0.000000,3.000000,1.000000,-1.375000,0.562500,-0.312500,-0.376953,0.334473,0.839355
Sun May 14 14:39:31 2017,-2.000000,-1.000000,-1.000000,-1.000000,-1.000000,0.000000,3.000000,1.000000,-1.375000,0.562500,-0.312500,-0.376953,0.334473,0.839355
Sun May 14 14:39:31 2017,-2.000000,-7.000000,-1.000000,-2.000000,-1.000000,-1.000000,-2.000000,-1.000000,-0.562500,0.812500,-0.312500,-0.372559,0.333496,0.845703
Sun May 14 14:39:31 2017,-2.000000,-7.000000,-1.000000,-2.000000,-1.000000,-1.000000,-2.000000,-1.000000,-0.562500,0.812500,-0.312500,-0.372559,0.333496,0.845703
Sun May 14 14:39:31 2017,-3.000000,-4.000000,-2.000000,0.000000,-3.000000,-3.000000,-3.000000,-3.000000,-0.187500,0.937500,-0.562500,-0.375977,0.332031,0.842285
Sun May 14 14:39:31 2017,0.000000,-2.000000,0.000000,-1.000000,2.000000,-1.000000,-2.000000,0.000000,-0.187500,0.937500,-0.562500,-0.375977,0.332031,0.842285
Sun May 14 14:39:31 2017,0.000000,-2.000000,0.000000,-1.000000,2.000000,-1.000000,-2.000000,0.000000,-0.187500,0.937500,-0.562500,-0.375977,0.332031,0.842285
Sun May 14 14:39:31 2017,0.000000,-2.000000,0.000000,-1.000000,2.000000,-1.000000,-2.000000,0.000000,-0.187500,0.937500,-0.562500,-0.375977,0.332031,0.842285
Sun May 14 14:39:31 2017,-2.000000,7.000000,-2.000000,-2.000000,-3.000000,-3.000000,-4.000000,-2.000000,-0.875000,0.750000,-0.500000,-0.379883,0.334961,0.836914
Sun May 14 14:39:31 2017,-2.000000,7.000000,-2.000000,-2.000000,-3.000000,-3.000000,-4.000000,-2.000000,-0.875000,0.750000,-0.500000,-0.379883,0.334961,0.836914
Sun May 14 14:39:31 2017,-2.000000,7.000000,-2.000000,-2.000000,-3.000000,-3.000000,-4.000000,-2.000000,-0.875000,0.750000,-0.500000,-0.379883,0.334961,0.836914
Sun May 14 14:39:31 2017,-2.000000,7.000000,-2.000000,-2.000000,-3.000000,-3.000000,-4.000000,-2.000000,-0.875000,0.750000,-0.500000,-0.379883,0.334961,0.836914
Sun May 14 14:39:31 2017,-3.000000,4.000000,2.000000,-2.000000,-1.000000,2.000000,4.000000,-4.000000,-1.625000,0.375000,-0.125000,-0.383301,0.334961,0.846680
Sun May 14 14:39:31 2017,-3.000000,4.000000,2.000000,-2.000000,-1.000000,2.000000,4.000000,-4.000000,-1.625000,0.375000,-0.125000,-0.383301,0.334961,0.846680
Sun May 14 14:39:31 2017,3.000000,6.000000,5.000000,3.000000,0.000000,-1.000000,-2.000000,-2.000000,-1.937500,0.562500,-0.375000,-0.378418,0.334473,0.850098
Sun May 14 14:39:31 2017,0.000000,-1.000000,0.000000,-1.000000,-4.000000,-2.000000,-4.000000,0.000000,-1.937500,0.562500,-0.375000,-0.378418,0.334473,0.850098
Sun May 14 14:39:31 2017,0.000000,-1.000000,0.000000,-1.000000,-4.000000,-2.000000,-4.000000,0.000000,-1.937500,0.562500,-0.375000,-0.378418,0.334473,0.850098
Sun May 14 14:39:31 2017,0.000000,-1.000000,0.000000,-1.000000,-4.000000,-2.000000,-4.000000,0.000000,-1.937500,0.562500,-0.375000,-0.378418,0.334473,0.850098
Sun May 14 14:39:31 2017,-1.000000,-7.000000,-3.000000,2.000000,-2.000000,-2.000000,-3.000000,1.000000,-0.812500,0.312500,-0.312500,-0.378906,0.325195,0.838867
Sun May 14 14:39:31 2017,-1.000000,-7.000000,-3.000000,2.000000,-2.000000,-2.000000,-3.000000,1.000000,-0.812500,0.312500,-0.312500,-0.378906,0.325195,0.838867
Sun May 14 14:39:31 2017,-1.000000,-7.000000,-3.000000,2.000000,-2.000000,-2.000000,-3.000000,1.000000,-0.812500,0.312500,-0.312500,-0.378906,0.325195,0.838867
Sun May 14 14:39:31 2017,-1.000000,-7.000000,-3.000000,2.000000,-2.000000,-2.000000,-3.000000,1.000000,-0.812500,0.312500,-0.312500,-0.378906,0.325195,0.838867
Sun May 14 14:39:31 2017,1.000000,1.000000,-2.000000,2.000000,-1.000000,0.000000,-3.000000,0.000000,0.625000,0.500000,-0.437500,-0.380371,0.326172,0.845703
Sun May 14 14:39:31 2017,1.000000,1.000000,-2.000000,2.000000,-1.000000,0.000000,-3.000000,0.000000,0.625000,0.500000,-0.437500,-0.380371,0.326172,0.845703
Sun May 14 14:39:31 2017,-1.000000,0.000000,1.000000,-1.000000,-2.000000,0.000000,-1.000000,0.000000,0.625000,0.500000,-0.437500,-0.380371,0.326172,0.845703
Sun May 14 14:39:31 2017,-1.000000,0.000000,1.000000,-1.000000,-2.000000,0.000000,-1.000000,0.000000,0.625000,0.500000,-0.437500,-0.380371,0.326172,0.845703
Sun May 14 14:39:31 2017,-3.000000,-5.000000,-3.000000,-1.000000,-3.000000,-1.000000,-1.000000,-1.000000,1.125000,0.375000,-0.437500,-0.382812,0.329102,0.837402
Sun May 14 14:39:31 2017,-3.000000,-5.000000,-3.000000,-1.000000,-3.000000,-1.000000,-1.000000,-1.000000,1.125000,0.375000,-0.437500,-0.382812,0.329102,0.837402
Sun May 14 14:39:31 2017,4.000000,-4.000000,-1.000000,1.000000,-1.000000,-1.000000,2.000000,5.000000,0.000000,0.250000,-0.312500,-0.379395,0.333984,0.841309
Sun May 14 14:39:31 2017,1.000000,1.000000,-1.000000,-1.000000,-1.000000,-1.000000,-1.000000,-2.000000,0.000000,0.250000,-0.312500,-0.379395,0.333984,0.841309
Sun May 14 14:39:31 2017,1.000000,1.000000,-1.000000,-1.000000,-1.000000,-1.000000,-1.000000,-2.000000,0.000000,0.250000,-0.312500,-0.379395,0.333984,0.841309
Sun May 14 14:39:31 2017,1.000000,1.000000,-1.000000,-1.000000,-1.000000,-1.000000,-1.000000,-2.000000,0.000000,0.250000,-0.312500,-0.379395,0.333984,0.841309
Sun May 14 14:39:31 2017,-3.000000,2.000000,2.000000,-2.000000,-2.000000,-2.000000,-1.000000,2.000000,-1.250000,0.250000,-0.312500,-0.375000,0.336426,0.843750
Sun May 14 14:39:31 2017,-3.000000,2.000000,2.000000,-2.000000,-2.000000,-2.000000,-1.000000,2.000000,-1.250000,0.250000,-0.312500,-0.375000,0.336426,0.843750
Sun May 14 14:39:31 2017,-3.000000,2.000000,2.000000,-2.000000,-2.000000,-2.000000,-1.000000,2.000000,-1.250000,0.250000,-0.312500,-0.375000,0.336426,0.843750
Sun May 14 14:39:31 2017,-3.000000,-7.000000,-1.000000,0.000000,0.000000,3.000000,9.000000,1.000000,-1.250000,0.250000,-0.312500,-0.375000,0.336426,0.843750
Sun May 14 14:39:31 2017,3.000000,2.000000,1.000000,1.000000,-1.000000,1.000000,2.000000,2.000000,-1.125000,0.312500,0.000000,-0.378906,0.332520,0.835449
Sun May 14 14:39:31 2017,3.000000,2.000000,1.000000,1.000000,-1.000000,1.000000,2.000000,2.000000,-1.125000,0.312500,0.000000,-0.378906,0.332520,0.835449
Sun May 14 14:39:31 2017,3.000000,2.000000,1.000000,1.000000,-1.000000,1.000000,2.000000,2.000000,-1.125000,0.312500,0.000000,-0.378906,0.332520,0.835449
Sun May 14 14:39:31 2017,1.000000,-1.000000,-2.000000,1.000000,3.000000,1.000000,0.000000,-2.000000,-0.687500,0.187500,-0.125000,-0.379883,0.330566,0.840820
Sun May 14 14:39:31 2017,1.000000,-1.000000,-2.000000,1.000000,3.000000,1.000000,0.000000,-2.000000,-0.687500,0.187500,-0.125000,-0.379883,0.330566,0.840820
Sun May 14 14:39:31 2017,1.000000,-1.000000,-2.000000,1.000000,3.000000,1.000000,0.000000,-2.000000,-0.687500,0.187500,-0.125000,-0.379883,0.330566,0.840820
Sun May 14 14:39:31 2017,1.000000,-1.000000,-2.000000,1.000000,3.000000,1.000000,0.000000,-2.000000,-0.687500,0.187500,-0.125000,-0.379883,0.330566,0.840820
Sun May 14 14:39:31 2017,-1.000000,-6.000000,0.000000,0.000000,-2.000000,-1.000000,-2.000000,-3.000000,-0.187500,0.187500,-0.187500,-0.383301,0.327637,0.843750
Sun May 14 14:39:31 2017,-1.000000,-6.000000,0.000000,0.000000,-2.000000,-1.000000,-2.000000,-3.000000,-0.187500,0.187500,-0.187500,-0.383301,0.327637,0.843750
Sun May 14 14:39:31 2017,3.000000,3.000000,2.000000,0.000000,0.000000,0.000000,-1.000000,0.000000,-0.187500,0.187500,-0.187500,-0.383301,0.327637,0.843750
Sun May 14 14:39:31 2017,3.000000,3.000000,2.000000,0.000000,0.000000,0.000000,-1.000000,0.000000,-0.187500,0.187500,-0.187500,-0.383301,0.327637,0.843750
Sun May 14 14:39:31 2017,0.000000,2.000000,-2.000000,-4.000000,-4.000000,-1.000000,-1.000000,-3.000000,0.125000,0.312500,-0.250000,-0.377930,0.333496,0.840820
Sun May 14 14:39:31 2017,0.000000,2.000000,-2.000000,-4.000000,-4.000000,-1.000000,-1.000000,-3.000000,0.125000,0.312500,-0.250000,-0.377930,0.333496,0.840820
Sun May 14 14:39:31 2017,0.000000,2.000000,-2.000000,-4.000000,-4.000000,-1.000000,-1.000000,-3.000000,0.125000,0.312500,-0.250000,-0.377930,0.333496,0.840820
Sun May 14 14:39:31 2017,-2.000000,1.000000,2.000000,-1.000000,0.000000,-4.000000,-5.000000,3.000000,-0.562500,0.250000,-0.250000,-0.383789,0.330566,0.841309
Sun May 14 14:39:31 2017,-2.000000,1.000000,2.000000,-1.000000,0.000000,-4.000000,-5.000000,3.000000,-0.562500,0.250000,-0.250000,-0.383789,0.330566,0.841309
Sun May 14 14:39:31 2017,-2.000000,1.000000,2.000000,-1.000000,0.000000,-4.000000,-5.000000,3.000000,-0.562500,0.250000,-0.250000,-0.383789,0.330566,0.841309
Sun May 14 14:39:31 2017,-2.000000,1.000000,2.000000,-1.000000,0.000000,-4.000000,-5.000000,3.000000,-0.562500,0.250000,-0.250000,-0.383789,0.330566,0.841309
Sun May 14 14:39:31 2017,1.000000,-1.000000,-1.000000,-1.000000,-1.000000,-1.000000,0.000000,1.000000,-0.687500,0.187500,0.000000,-0.384766,0.332520,0.844238
Sun May 14 14:39:31 2017,1.000000,-1.000000,-1.000000,-1.000000,-1.000000,-1.000000,0.000000,1.000000,-0.687500,0.187500,0.000000,-0.384766,0.332520,0.844238
Sun May 14 14:39:31 2017,-2.000000,-3.000000,-1.000000,-1.000000,-2.000000,-2.000000,-4.000000,-3.000000,-0.687500,0.187500,0.000000,-0.384766,0.332520,0.844238
Sun May 14 14:39:31 2017,-2.000000,-3.000000,-1.000000,-1.000000,-2.000000,-2.000000,-4.000000,-3.000000,-0.687500,0.187500,0.000000,-0.384766,0.332520,0.844238
Sun May 14 14:39:31 2017,-1.000000,-1.000000,-2.000000,2.000000,1.000000,0.000000,0.000000,-1.000000,-0.937500,0.187500,-0.187500,-0.378906,0.326172,0.839844
Sun May 14 14:39:31 2017,-1.000000,-1.000000,-2.000000,2.000000,1.000000,0.000000,0.000000,-1.000000,-0.937500,0.187500,-0.187500,-0.378906,0.326172,0.839844
Sun May 14 14:39:31 2017,1.000000,-4.000000,-1.000000,-1.000000,-4.000000,-2.000000,-5.000000,3.000000,-0.937500,0.187500,-0.187500,-0.378906,0.326172,0.839844
Sun May 14 14:39:31 2017,-4.000000,4.000000,1.000000,-3.000000,1.000000,-1.000000,-1.000000,-4.000000,-0.312500,0.000000,-0.125000,-0.379395,0.330078,0.838379
Sun May 14 14:39:31 2017,-4.000000,4.000000,1.000000,-3.000000,1.000000,-1.000000,-1.000000,-4.000000,-0.312500,0.000000,-0.125000,-0.379395,0.330078,0.838379
Sun May 14 14:39:31 2017,-4.000000,4.000000,1.000000,-3.000000,1.000000,-1.000000,-1.000000,-4.000000,-0.312500,0.000000,-0.125000,-0.379395,0.330078,0.838379
Sun May 14 14:39:31 2017,1.000000,5.000000,3.000000,0.000000,-1.000000,2.000000,2.000000,-1.000000,-0.312500,0.000000,-0.125000,-0.379395,0.330078,0.838379
Sun May 14 14:39:31 2017,-4.000000,-8.000000,-4.000000,-3.000000,-2.000000,-4.000000,-3.000000,-2.000000,-0.187500,0.062500,-0.062500,-0.381836,0.326172,0.843262
Sun May 14 14:39:31 2017,-4.000000,-8.000000,-4.000000,-3.000000,-2.000000,-4.000000,-3.000000,-2.000000,-0.187500,0.062500,-0.062500,-0.381836,0.326172,0.843262
Sun May 14 14:39:31 2017,-1.000000,-5.000000,-6.000000,-1.000000,-1.000000,1.000000,1.000000,-1.000000,-0.187500,0.062500,-0.062500,-0.381836,0.326172,0.843262
Sun May 14 14:39:31 2017,0.000000,-2.000000,-2.000000,-1.000000,-3.000000,-1.000000,-1.000000,2.000000,0.187500,0.000000,0.000000,-0.384277,0.330566,0.835938
Sun May 14 14:39:31 2017,0.000000,-2.000000,-2.000000,-1.000000,-3.000000,-1.000000,-1.000000,2.000000,0.187500,0.000000,0.000000,-0.384277,0.330566,0.835938
Sun May 14 14:39:31 2017,0.000000,-2.000000,-2.000000,-1.000000,-3.000000,-1.000000,-1.000000,2.000000,0.187500,0.000000,0.000000,-0.384277,0.330566,0.835938
Sun May 14 14:39:31 2017,5.000000,4.000000,0.000000,1.000000,-1.000000,-1.000000,2.000000,4.000000,0.062500,0.062500,-0.125000,-0.379883,0.329102,0.836426
Sun May 14 14:39:31 2017,5.000000,4.000000,0.000000,1.000000,-1.000000,-1.000000,2.000000,4.000000,0.062500,0.062500,-0.125000,-0.379883,0.329102,0.836426
Sun May 14 14:39:31 2017,5.000000,4.000000,0.000000,1.000000,-1.000000,-1.000000,2.000000,4.000000,0.062500,0.062500,-0.125000,-0.379883,0.329102,0.836426
Sun May 14 14:39:31 2017,5.000000,4.000000,0.000000,1.000000,-1.000000,-1.000000,2.000000,4.000000,0.062500,0.062500,-0.125000,-0.379883,0.329102,0.836426
Sun May 14 14:39:31 2017,-1.000000,-5.000000,-2.000000,0.000000,2.000000,-1.000000,-1.000000,-5.000000,-0.312500,-0.062500,-0.312500,-0.381348,0.329102,0.839355
Sun May 14 14:39:31 2017,-1.000000,-5.000000,-2.000000,0.000000,2.000000,-1.000000,-1.000000,-5.000000,-0.312500,-0.062500,-0.312500,-0.381348,0.329102,0.839355
Sun May 14 14:39:31 2017,-1.000000,-5.000000,-2.000000,0.000000,2.000000,-1.000000,-1.000000,-5.000000,-0.312500,-0.062500,-0.312500,-0.381348,0.329102,0.839355
Sun May 14 14:39:31 2017,3.000000,9.000000,6.000000,-1.000000,-5.000000,-4.000000,-1.000000,1.000000,-0.312500,-0.062500,-0.312500,-0.381348,0.329102,0.839355
Sun May 14 14:39:31 2017,-6.000000,-4.000000,-3.000000,-1.000000,0.000000,-1.000000,-1.000000,-3.000000,-0.812500,0.062500,-0.187500,-0.377441,0.328613,0.842285
Sun May 14 14:39:31 2017,-6.000000,-4.000000,-3.000000,-1.000000,0.000000,-1.000000,-1.000000,-3.000000,-0.812500,0.062500,-0.187500,-0.377441,0.328613,0.842285
Sun May 14 14:39:31 2017,-6.000000,-4.000000,-3.000000,-1.000000,0.000000,-1.000000,-1.000000,-3.000000,-0.812500,0.062500,-0.187500,-0.377441,0.328613,0.842285
Sun May 14 14:39:31 2017,-1.000000,-1.000000,-2.000000,-2.000000,-1.000000,-3.000000,-3.000000,-4.000000,-0.562500,0.187500,-0.125000,-0.378418,0.331055,0.836426
Sun May 14 14:39:31 2017,-1.000000,-1.000000,-2.000000,-2.000000,-1.000000,-3.000000,-3.000000,-4.000000,-0.562500,0.187500,-0.125000,-0.378418,0.331055,0.836426
Sun May 14 14:39:31 2017,-1.000000,-1.000000,-2.000000,-2.000000,-1.000000,-3.000000,-3.000000,-4.000000,-0.562500,0.187500,-0.125000,-0.378418,0.331055,0.836426
Sun May 14 14:39:31 2017,0.000000,-4.000000,-3.000000,0.000000,0.000000,-2.000000,3.000000,1.000000,-0.562500,0.187500,-0.125000,-0.378418,0.331055,0.836426
Sun May 14 14:39:31 2017,-2.000000,-2.000000,0.000000,0.000000,-5.000000,0.000000,0.000000,2.000000,0.125000,0.375000,-0.312500,-0.379883,0.327637,0.842285
Sun May 14 14:39:31 2017,-2.000000,-2.000000,0.000000,0.000000,-5.000000,0.000000,0.000000,2.000000,0.125000,0.375000,-0.312500,-0.379883,0.327637,0.842285
Sun May 14 14:39:31 2017,-3.000000,-1.000000,-1.000000,0.000000,-1.000000,-2.000000,-3.000000,-4.000000,0.125000,0.375000,-0.312500,-0.379883,0.327637,0.842285
Sun May 14 14:39:31 2017,-3.000000,-1.000000,-1.000000,0.000000,-1.000000,-2.000000,-3.000000,-4.000000,-0.062500,0.375000,-0.312500,-0.386230,0.328125,0.842285
Sun May 14 14:39:31 2017,2.000000,-1.000000,0.000000,3.000000,0.000000,-1.000000,0.000000,-2.000000,-0.062500,0.375000,-0.312500,-0.386230,0.328125,0.842285
Sun May 14 14:39:31 2017,2.000000,-1.000000,0.000000,3.000000,0.000000,-1.000000,0.000000,-2.000000,-0.062500,0.375000,-0.312500,-0.386230,0.328125,0.842285
Sun May 14 14:39:31 2017,1.000000,4.000000,2.000000,0.000000,-1.000000,-2.000000,-2.000000,3.000000,0.062500,0.562500,-0.187500,-0.382812,0.326660,0.839355
Sun May 14 14:39:31 2017,-1.000000,-9.000000,-3.000000,-2.000000,-1.000000,2.000000,2.000000,-2.000000,0.062500,0.562500,-0.187500,-0.382812,0.326660,0.839355
Sun May 14 14:39:31 2017,-1.000000,-9.000000,-3.000000,-2.000000,-1.000000,2.000000,2.000000,-2.000000,0.062500,0.562500,-0.187500,-0.382812,0.326660,0.839355
Sun May 14 14:39:31 2017,-1.000000,-9.000000,-3.000000,-2.000000,-1.000000,2.000000,2.000000,-2.000000,0.062500,0.562500,-0.187500,-0.382812,0.326660,0.839355
Sun May 14 14:39:31 2017,-3.000000,-3.000000,-1.000000,-2.000000,2.000000,0.000000,-3.000000,-3.000000,0.312500,0.375000,-0.187500,-0.382812,0.328125,0.843262
Sun May 14 14:39:31 2017,-3.000000,-3.000000,-1.000000,-2.000000,2.000000,0.000000,-3.000000,-3.000000,0.312500,0.375000,-0.187500,-0.382812,0.328125,0.843262
Sun May 14 14:39:31 2017,-3.000000,-3.000000,-1.000000,-2.000000,2.000000,0.000000,-3.000000,-3.000000,0.312500,0.375000,-0.187500,-0.382812,0.328125,0.843262
Sun May 14 14:39:31 2017,-3.000000,-3.000000,-1.000000,-2.000000,2.000000,0.000000,-3.000000,-3.000000,0.312500,0.375000,-0.187500,-0.382812,0.328125,0.843262
Sun May 14 14:39:31 2017,-1.000000,-1.000000,2.000000,1.000000,-2.000000,-1.000000,-2.000000,-2.000000,0.062500,0.312500,-0.250000,-0.384766,0.329102,0.839844
Sun May 14 14:39:31 2017,-1.000000,-1.000000,2.000000,1.000000,-2.000000,-1.000000,-2.000000,-2.000000,0.062500,0.312500,-0.250000,-0.384766,0.329102,0.839844
Sun May 14 14:39:31 2017,-1.000000,-1.000000,2.000000,1.000000,-2.000000,-1.000000,-2.000000,-2.000000,0.062500,0.312500,-0.250000,-0.384766,0.329102,0.839844
Sun May 14 14:39:31 2017,3.000000,11.000000,7.000000,-1.000000,5.000000,1.000000,0.000000,3.000000,-1.062500,0.062500,-0.187500,-0.383301,0.329102,0.836914
Sun May 14 14:39:31 2017,3.000000,11.000000,7.000000,-1.000000,5.000000,1.000000,0.000000,3.000000,-1.062500,0.062500,-0.187500,-0.383301,0.329102,0.836914
Sun May 14 14:39:31 2017,3.000000,11.000000,7.000000,-1.000000,5.000000,1.000000,0.000000,3.000000,-1.062500,0.062500,-0.187500,-0.383301,0.329102,0.836914
Sun May 14 14:39:31 2017,3.000000,11.000000,7.000000,-1.000000,5.000000,1.000000,0.000000,3.000000,-1.062500,0.062500,-0.187500,-0.383301,0.329102,0.836914
Sun May 14 14:39:31 2017,0.000000,0.000000,-1.000000,-2.000000,-3.000000,0.000000,0.000000,1.000000,-0.812500,0.250000,0.125000,-0.384277,0.328613,0.841309
Sun May 14 14:39:31 2017,0.000000,0.000000,-1.000000,-2.000000,-3.000000,0.000000,0.000000,1.000000,-0.812500,0.250000,0.125000,-0.384277,0.328613,0.841309
Sun May 14 14:39:31 2017,0.000000,0.000000,-1.000000,-2.000000,-3.000000,0.000000,0.000000,1.000000,-0.812500,0.250000,0.125000,-0.384277,0.328613,0.841309
Sun May 14 14:39:31 2017,0.000000,0.000000,-1.000000,-2.000000,-3.000000,0.000000,0.000000,1.000000,-0.812500,0.250000,0.125000,-0.384277,0.328613,0.841309
Sun May 14 14:39:31 2017,-1.000000,-9.000000,-5.000000,-2.000000,0.000000,-5.000000,-1.000000,-3.000000,0.000000,0.437500,-0.125000,-0.383301,0.325684,0.835938
Sun May 14 14:39:31 2017,-1.000000,-9.000000,-5.000000,-2.000000,0.000000,-5.000000,-1.000000,-3.000000,0.000000,0.437500,-0.125000,-0.383301,0.325684,0.835938
Sun May 14 14:39:31 2017,-1.000000,-9.000000,-5.000000,-2.000000,0.000000,-5.000000,-1.000000,-3.000000,0.000000,0.437500,-0.125000,-0.383301,0.325684,0.835938
Sun May 14 14:39:31 2017,2.000000,3.000000,-1.000000,0.000000,-2.000000,0.000000,-2.000000,-1.000000,0.500000,0.375000,-0.125000,-0.382812,0.329102,0.840332
Sun May 14 14:39:31 2017,2.000000,3.000000,-1.000000,0.000000,-2.000000,0.000000,-2.000000,-1.000000,0.500000,0.375000,-0.125000,-0.382812,0.329102,0.840332
Sun May 14 14:39:31 2017,2.000000,3.000000,-1.000000,0.000000,-2.000000,0.000000,-2.000000,-1.000000,0.500000,0.375000,-0.125000,-0.382812,0.329102,0.840332
Sun May 14 14:39:31 2017,2.000000,3.000000,-1.000000,0.000000,-2.000000,0.000000,-2.000000,-1.000000,0.500000,0.375000,-0.125000,-0.382812,0.329102,0.840332
Sun May 14 14:39:31 2017,-5.000000,0.000000,-4.000000,-4.000000,-5.000000,-3.000000,-2.000000,-5.000000,0.500000,0.187500,0.000000,-0.379395,0.333496,0.844238
Sun May 14 14:39:31 2017,-5.000000,0.000000,-4.000000,-4.000000,-5.000000,-3.000000,-2.000000,-5.000000,0.500000,0.187500,0.000000,-0.379395,0.333496,0.844238
Sun May 14 14:39:31 2017,-5.000000,0.000000,-4.000000,-4.000000,-5.000000,-3.000000,-2.000000,-5.000000,0.500000,0.187500,0.000000,-0.379395,0.333496,0.844238
Sun May 14 14:39:31 2017,-5.000000,0.000000,-4.000000,-4.000000,-5.000000,-3.000000,-2.000000,-5.000000,0.500000,0.187500,0.000000,-0.379395,0.333496,0.844238
Sun May 14 14:39:31 2017,1.000000,1.000000,1.000000,2.000000,-1.000000,-6.000000,-9.000000,2.000000,-0.187500,0.000000,-0.125000,-0.381348,0.327148,0.838379
Sun May 14 14:39:31 2017,1.000000,1.000000,1.000000,2.000000,-1.000000,-6.000000,-9.000000,2.000000,-0.187500,0.000000,-0.125000,-0.381348,0.327148,0.838379
Sun May 14 14:39:31 2017,-3.000000,-3.000000,-4.000000,-2.000000,0.000000,-1.000000,-4.000000,-2.000000,-0.562500,-0.062500,-0.187500,-0.383789,0.329590,0.839844
Sun May 14 14:39:31 2017,0.000000,0.000000,0.000000,2.000000,-2.000000,3.000000,6.000000,2.000000,-0.562500,-0.062500,-0.187500,-0.383789,0.329590,0.839844
Sun May 14 14:39:31 2017,0.000000,0.000000,0.000000,2.000000,-2.000000,3.000000,6.000000,2.000000,-0.562500,-0.062500,-0.187500,-0.383789,0.329590,0.839844
Sun May 14 14:39:31 2017,0.000000,0.000000,0.000000,2.000000,-2.000000,3.000000,6.000000,2.000000,-0.562500,-0.062500,-0.187500,-0.383789,0.329590,0.839844
Sun May 14 14:39:31 2017,-5.000000,-5.000000,-5.000000,-4.000000,-1.000000,-1.000000,-1.000000,-2.000000,-0.312500,0.062500,0.125000,-0.383789,0.326172,0.836426
Sun May 14 14:39:31 2017,-5.000000,-5.000000,-5.000000,-4.000000,-1.000000,-1.000000,-1.000000,-2.000000,-0.312500,0.062500,0.125000,-0.383789,0.326172,0.836426
Sun May 14 14:39:31 2017,-5.000000,-5.000000,-5.000000,-4.000000,-1.000000,-1.000000,-1.000000,-2.000000,-0.312500,0.062500,0.125000,-0.383789,0.326172,0.836426
Sun May 14 14:39:31 2017,-5.000000,-5.000000,-5.000000,-4.000000,-1.000000,-1.000000,-1.000000,-2.000000,-0.312500,0.062500,0.125000,-0.383789,0.326172,0.836426
Sun May 14 14:39:31 2017,-1.000000,0.000000,0.000000,0.000000,1.000000,1.000000,2.000000,-2.000000,0.000000,0.187500,0.125000,-0.384277,0.329102,0.844238
Sun May 14 14:39:31 2017,-1.000000,0.000000,0.000000,0.000000,1.000000,1.000000,2.000000,-2.000000,0.000000,0.187500,0.125000,-0.384277,0.329102,0.844238
Sun May 14 14:39:31 2017,0.000000,-5.000000,-3.000000,0.000000,1.000000,1.000000,2.000000,0.000000,-0.187500,0.000000,-0.187500,-0.387695,0.331055,0.841309
Sun May 14 14:39:31 2017,0.000000,-5.000000,-3.000000,0.000000,1.000000,1.000000,2.000000,0.000000,-0.187500,0.000000,-0.187500,-0.387695,0.331055,0.841309
Sun May 14 14:39:31 2017,-3.000000,-2.000000,-2.000000,-3.000000,-3.000000,-3.000000,-4.000000,-4.000000,-0.187500,0.000000,-0.187500,-0.387695,0.331055,0.841309
Sun May 14 14:39:31 2017,-3.000000,-2.000000,-2.000000,-3.000000,-3.000000,-3.000000,-4.000000,-4.000000,-0.187500,0.000000,-0.187500,-0.387695,0.331055,0.841309
Sun May 14 14:39:31 2017,3.000000,4.000000,-5.000000,-1.000000,0.000000,0.000000,1.000000,-1.000000,-0.437500,0.125000,0.062500,-0.383789,0.334961,0.840332
Sun May 14 14:39:31 2017,-1.000000,0.000000,-1.000000,-1.000000,-6.000000,-2.000000,-4.000000,1.000000,-0.437500,0.125000,0.062500,-0.383789,0.334961,0.840332
Sun May 14 14:39:31 2017,-1.000000,0.000000,-1.000000,-1.000000,-6.000000,-2.000000,-4.000000,1.000000,-0.437500,0.125000,0.062500,-0.383789,0.334961,0.840332
Sun May 14 14:39:31 2017,-1.000000,0.000000,-1.000000,-1.000000,-6.000000,-2.000000,-4.000000,1.000000,-0.437500,0.125000,0.062500,-0.383789,0.334961,0.840332
Sun May 14 14:39:31 2017,-1.000000,0.000000,-1.000000,-1.000000,-6.000000,-2.000000,-4.000000,1.000000,-0.437500,0.125000,0.062500,-0.383789,0.334961,0.840332
Sun May 14 14:39:31 2017,1.000000,2.000000,0.000000,1.000000,3.000000,3.000000,2.000000,-1.000000,-0.687500,0.375000,0.437500,-0.378906,0.332031,0.839844
Sun May 14 14:39:31 2017,1.000000,2.000000,0.000000,1.000000,3.000000,3.000000,2.000000,-1.000000,-0.687500,0.375000,0.437500,-0.378906,0.332031,0.839844
Sun May 14 14:39:31 2017,-3.000000,-1.000000,0.000000,-1.000000,-2.000000,-2.000000,2.000000,1.000000,-0.062500,0.437500,0.500000,-0.379883,0.323730,0.834961
Sun May 14 14:39:31 2017,-3.000000,-1.000000,0.000000,-1.000000,-2.000000,-2.000000,2.000000,1.000000,-0.062500,0.437500,0.500000,-0.379883,0.323730,0.834961
Sun May 14 14:39:31 2017,-5.000000,-4.000000,-3.000000,-2.000000,0.000000,-1.000000,-5.000000,-1.000000,-0.062500,0.437500,0.500000,-0.379883,0.323730,0.834961
Sun May 14 14:39:31 2017,-5.000000,-4.000000,-3.000000,-2.000000,0.000000,-1.000000,-5.000000,-1.000000,-0.062500,0.437500,0.500000,-0.379883,0.323730,0.834961
Sun May 14 14:39:31 2017,-5.000000,-4.000000,-3.000000,-2.000000,0.000000,-1.000000,-5.000000,-1.000000,-0.062500,0.437500,0.500000,-0.379883,0.323730,0.834961
Sun May 14 14:39:31 2017,0.000000,-3.000000,-3.000000,-5.000000,-6.000000,-2.000000,1.000000,-4.000000,0.687500,0.562500,0.250000,-0.386230,0.325195,0.836426
Sun May 14 14:39:31 2017,0.000000,-3.000000,-3.000000,-5.000000,-6.000000,-2.000000,1.000000,-4.000000,0.687500,0.562500,0.250000,-0.386230,0.325195,0.836426
Sun May 14 14:39:31 2017,0.000000,-3.000000,-3.000000,-5.000000,-6.000000,-2.000000,1.000000,-4.000000,0.687500,0.562500,0.250000,-0.386230,0.325195,0.836426
Sun May 14 14:39:31 2017,0.000000,-3.000000,-3.000000,-5.000000,-6.000000,-2.000000,1.000000,-4.000000,0.687500,0.562500,0.250000,-0.386230,0.325195,0.836426
Sun May 14 14:39:31 2017,-5.000000,0.000000,1.000000,-1.000000,0.000000,-3.000000,1.000000,-1.000000,1.312500,0.625000,0.000000,-0.381348,0.327148,0.837402
Sun May 14 14:39:31 2017,-5.000000,0.000000,1.000000,-1.000000,0.000000,-3.000000,1.000000,-1.000000,1.312500,0.625000,0.000000,-0.381348,0.327148,0.837402
Sun May 14 14:39:31 2017,-5.000000,-4.000000,-2.000000,2.000000,-1.000000,-2.000000,-5.000000,-7.000000,1.500000,0.625000,0.000000,-0.387695,0.330566,0.844238
Sun May 14 14:39:31 2017,0.000000,2.000000,2.000000,-1.000000,1.000000,-2.000000,-3.000000,0.000000,1.500000,0.625000,0.000000,-0.387695,0.330566,0.844238
Sun May 14 14:39:31 2017,0.000000,2.000000,2.000000,-1.000000,1.000000,-2.000000,-3.000000,0.000000,1.500000,0.625000,0.000000,-0.387695,0.330566,0.844238
Sun May 14 14:39:31 2017,0.000000,2.000000,2.000000,-1.000000,1.000000,-2.000000,-3.000000,0.000000,1.500000,0.625000,0.000000,-0.387695,0.330566,0.844238
Sun May 14 14:39:31 2017,0.000000,2.000000,2.000000,-1.000000,1.000000,-2.000000,-3.000000,0.000000,1.500000,0.625000,0.000000,-0.387695,0.330566,0.844238
Sun May 14 14:39:31 2017,1.000000,-3.000000,1.000000,3.000000,4.000000,4.000000,1.000000,-2.000000,0.437500,0.562500,-0.187500,-0.390625,0.332520,0.838867
Sun May 14 14:39:31 2017,1.000000,-3.000000,1.000000,3.000000,4.000000,4.000000,1.000000,-2.000000,0.437500,0.562500,-0.187500,-0.390625,0.332520,0.838867
Sun May 14 14:39:31 2017,1.000000,-3.000000,1.000000,3.000000,4.000000,4.000000,1.000000,-2.000000,0.437500,0.562500,-0.187500,-0.390625,0.332520,0.838867
Sun May 14 14:39:31 2017,1.000000,-3.000000,1.000000,3.000000,4.000000,4.000000,1.000000,-2.000000,0.437500,0.562500,-0.187500,-0.390625,0.332520,0.838867
Sun May 14 14:39:31 2017,0.000000,-3.000000,-2.000000,-2.000000,-5.000000,-7.000000,-7.000000,-2.000000,-0.625000,0.437500,-0.125000,-0.386230,0.323730,0.849121
Sun May 14 14:39:31 2017,0.000000,-3.000000,-2.000000,-2.000000,-5.000000,-7.000000,-7.000000,-2.000000,-0.625000,0.437500,-0.125000,-0.386230,0.323730,0.849121
Sun May 14 14:39:31 2017,-8.000000,-10.000000,1.000000,-1.000000,-1.000000,0.000000,1.000000,2.000000,-0.562500,0.500000,-0.125000,-0.384277,0.327148,0.843262
Sun May 14 14:39:31 2017,-8.000000,-10.000000,1.000000,-1.000000,-1.000000,0.000000,1.000000,2.000000,-0.562500,0.500000,-0.125000,-0.384277,0.327148,0.843262
Sun May 14 14:39:31 2017,-1.000000,1.000000,-1.000000,0.000000,-2.000000,-1.000000,3.000000,0.000000,-0.562500,0.500000,-0.125000,-0.384277,0.327148,0.843262
Sun May 14 14:39:31 2017,-1.000000,1.000000,-1.000000,0.000000,-2.000000,-1.000000,3.000000,0.000000,-0.562500,0.500000,-0.125000,-0.384277,0.327148,0.843262
Sun May 14 14:39:31 2017,-2.000000,-3.000000,-2.000000,-5.000000,2.000000,0.000000,-2.000000,-1.000000,-0.562500,0.500000,-0.125000,-0.384277,0.327148,0.843262
Sun May 14 14:39:31 2017,-2.000000,-5.000000,-3.000000,-3.000000,-3.000000,-3.000000,-3.000000,-4.000000,-0.625000,0.250000,-0.312500,-0.383301,0.326172,0.842773
Sun May 14 14:39:31 2017,-2.000000,-5.000000,-3.000000,-3.000000,-3.000000,-3.000000,-3.000000,-4.000000,-0.625000,0.250000,-0.312500,-0.383301,0.326172,0.842773
Sun May 14 14:39:32 2017,-2.000000,-5.000000,-3.000000,-3.000000,-3.000000,-3.000000,-3.000000,-4.000000,-0.625000,0.250000,-0.312500,-0.383301,0.326172,0.842773
Sun May 14 14:39:32 2017,-3.000000,1.000000,-1.000000,-3.000000,-1.000000,-3.000000,-2.000000,1.000000,0.562500,0.000000,0.250000,-0.385742,0.332031,0.838867
Sun May 14 14:39:32 2017,5.000000,3.000000,4.000000,2.000000,-1.000000,1.000000,2.000000,5.000000,0.562500,0.000000,0.250000,-0.385742,0.332031,0.838867
Sun May 14 14:39:32 2017,5.000000,3.000000,4.000000,2.000000,-1.000000,1.000000,2.000000,5.000000,0.562500,0.000000,0.250000,-0.385742,0.332031,0.838867
Sun May 14 14:39:32 2017,1.000000,-2.000000,-4.000000,-1.000000,-2.000000,-2.000000,-1.000000,-3.000000,0.625000,0.187500,-0.062500,-0.389160,0.330566,0.831543
Sun May 14 14:39:32 2017,-1.000000,-5.000000,-5.000000,-1.000000,-3.000000,-1.000000,-3.000000,-1.000000,0.625000,0.187500,-0.062500,-0.389160,0.330566,0.831543
Sun May 14 14:39:32 2017,-1.000000,-5.000000,-5.000000,-1.000000,-3.000000,-1.000000,-3.000000,-1.000000,0.625000,0.187500,-0.062500,-0.389160,0.330566,0.831543
Sun May 14 14:39:32 2017,-1.000000,-5.000000,-5.000000,-1.000000,-3.000000,-1.000000,-3.000000,-1.000000,0.625000,0.187500,-0.062500,-0.389160,0.330566,0.831543
Sun May 14 14:39:32 2017,-3.000000,2.000000,-3.000000,-2.000000,1.000000,-1.000000,2.000000,-2.000000,0.562500,0.125000,0.125000,-0.384766,0.329590,0.840820
Sun May 14 14:39:32 2017,-3.000000,2.000000,-3.000000,-2.000000,1.000000,-1.000000,2.000000,-2.000000,0.562500,0.125000,0.125000,-0.384766,0.329590,0.840820
Sun May 14 14:39:32 2017,-3.000000,2.000000,-3.000000,-2.000000,1.000000,-1.000000,2.000000,-2.000000,0.562500,0.125000,0.125000,-0.384766,0.329590,0.840820
Sun May 14 14:39:32 2017,-3.000000,2.000000,-3.000000,-2.000000,1.000000,-1.000000,2.000000,-2.000000,0.562500,0.125000,0.125000,-0.384766,0.329590,0.840820
Sun May 14 14:39:32 2017,-4.000000,-2.000000,-2.000000,-3.000000,-3.000000,-2.000000,-2.000000,-2.000000,0.250000,0.000000,0.125000,-0.389648,0.333008,0.845703
Sun May 14 14:39:32 2017,-4.000000,-2.000000,-2.000000,-3.000000,-3.000000,-2.000000,-2.000000,-2.000000,0.250000,0.000000,0.125000,-0.389648,0.333008,0.845703
Sun May 14 14:39:32 2017,0.000000,0.000000,-5.000000,0.000000,1.000000,0.000000,0.000000,0.000000,0.250000,0.000000,0.125000,-0.389648,0.333008,0.845703
Sun May 14 14:39:32 2017,0.000000,0.000000,-5.000000,0.000000,1.000000,0.000000,0.000000,0.000000,0.250000,0.000000,0.125000,-0.389648,0.333008,0.845703
Sun May 14 14:39:32 2017,-1.000000,-4.000000,-2.000000,-3.000000,-5.000000,-2.000000,-2.000000,-2.000000,0.500000,0.125000,0.250000,-0.388672,0.321777,0.837891
Sun May 14 14:39:32 2017,-1.000000,-4.000000,-2.000000,-3.000000,-5.000000,-2.000000,-2.000000,-2.000000,0.500000,0.125000,0.250000,-0.388672,0.321777,0.837891
Sun May 14 14:39:32 2017,-1.000000,-4.000000,-2.000000,-3.000000,-5.000000,-2.000000,-2.000000,-2.000000,0.500000,0.125000,0.250000,-0.388672,0.321777,0.837891
Sun May 14 14:39:32 2017,0.000000,0.000000,0.000000,3.000000,-1.000000,-2.000000,0.000000,-1.000000,0.625000,0.187500,0.187500,-0.384277,0.325684,0.844727
Sun May 14 14:39:32 2017,0.000000,0.000000,0.000000,3.000000,-1.000000,-2.000000,0.000000,-1.000000,0.625000,0.187500,0.187500,-0.384277,0.325684,0.844727
Sun May 14 14:39:32 2017,0.000000,0.000000,0.000000,3.000000,-1.000000,-2.000000,0.000000,-1.000000,0.625000,0.187500,0.187500,-0.384277,0.325684,0.844727
Sun May 14 14:39:32 2017,0.000000,0.000000,0.000000,3.000000,-1.000000,-2.000000,0.000000,-1.000000,0.625000,0.187500,0.187500,-0.384277,0.325684,0.844727
Sun May 14 14:39:32 2017,1.000000,0.000000,1.000000,2.000000,3.000000,8.000000,2.000000,3.000000,0.875000,0.062500,0.187500,-0.386719,0.329102,0.835449
Sun May 14 14:39:32 2017,1.000000,0.000000,1.000000,2.000000,3.000000,8.000000,2.000000,3.000000,0.875000,0.062500,0.187500,-0.386719,0.329102,0.835449
Sun May 14 14:39:32 2017,-3.000000,2.000000,-1.000000,-2.000000,-3.000000,-3.000000,-3.000000,0.000000,0.875000,0.062500,0.187500,-0.386719,0.329102,0.835449
Sun May 14 14:39:32 2017,-3.000000,2.000000,-1.000000,-2.000000,-3.000000,-3.000000,-3.000000,0.000000,0.875000,0.062500,0.187500,-0.386719,0.329102,0.835449
Sun May 14 14:39:32 2017,0.000000,1.000000,-4.000000,-2.000000,-3.000000,-2.000000,-1.000000,-3.000000,1.125000,0.062500,0.062500,-0.387695,0.329590,0.840332
Sun May 14 14:39:32 2017,0.000000,1.000000,-4.000000,-2.000000,-3.000000,-2.000000,-1.000000,-3.000000,1.125000,0.062500,0.062500,-0.387695,0.329590,0.840332
Sun May 14 14:39:32 2017,3.000000,3.000000,3.000000,0.000000,-4.000000,-1.000000,-1.000000,3.000000,1.125000,0.062500,0.062500,-0.387695,0.329590,0.840332
Sun May 14 14:39:32 2017,-2.000000,-1.000000,-2.000000,-1.000000,-3.000000,-5.000000,-1.000000,-4.000000,0.875000,0.000000,0.125000,-0.387695,0.332031,0.839355
Sun May 14 14:39:32 2017,-2.000000,-1.000000,-2.000000,-1.000000,-3.000000,-5.000000,-1.000000,-4.000000,0.875000,0.000000,0.125000,-0.387695,0.332031,0.839355
Sun May 14 14:39:32 2017,-2.000000,-1.000000,-2.000000,-1.000000,-3.000000,-5.000000,-1.000000,-4.000000,0.875000,0.000000,0.125000,-0.387695,0.332031,0.839355
Sun May 14 14:39:32 2017,3.000000,4.000000,0.000000,1.000000,-1.000000,-3.000000,0.000000,0.000000,0.875000,0.000000,0.125000,-0.387695,0.332031,0.839355
Sun May 14 14:39:32 2017,-2.000000,-1.000000,-2.000000,-2.000000,-2.000000,-2.000000,0.000000,0.000000,0.062500,-0.125000,0.312500,-0.384277,0.332520,0.840820
Sun May 14 14:39:32 2017,-2.000000,-1.000000,-2.000000,-2.000000,-2.000000,-2.000000,0.000000,0.000000,0.062500,-0.125000,0.312500,-0.384277,0.332520,0.840820
Sun May 14 14:39:32 2017,-8.000000,-5.000000,-4.000000,-4.000000,2.000000,-1.000000,-2.000000,-7.000000,0.062500,-0.125000,0.312500,-0.384277,0.332520,0.840820
Sun May 14 14:39:32 2017,-8.000000,-5.000000,-4.000000,-4.000000,2.000000,-1.000000,-2.000000,-7.000000,-0.187500,0.000000,0.562500,-0.382812,0.332520,0.838867
Sun May 14 14:39:32 2017,-1.000000,0.000000,1.000000,-1.000000,-2.000000,-2.000000,-4.000000,2.000000,-0.187500,0.000000,0.562500,-0.382812,0.332520,0.838867
Sun May 14 14:39:32 2017,-1.000000,0.000000,1.000000,-1.000000,-2.000000,-2.000000,-4.000000,2.000000,-0.187500,0.000000,0.562500,-0.382812,0.332520,0.838867
Sun May 14 14:39:32 2017,2.000000,-1.000000,-2.000000,-2.000000,1.000000,-5.000000,0.000000,-1.000000,0.125000,-0.062500,0.500000,-0.390137,0.328613,0.841797
Sun May 14 14:39:32 2017,2.000000,-1.000000,-2.000000,-2.000000,1.000000,-5.000000,0.000000,-1.000000,0.125000,-0.062500,0.500000,-0.390137,0.328613,0.841797
Sun May 14 14:39:32 2017,2.000000,-1.000000,-2.000000,-2.000000,1.000000,-5.000000,0.000000,-1.000000,0.125000,-0.062500,0.500000,-0.390137,0.328613,0.841797
Sun May 14 14:39:32 2017,-1.000000,2.000000,-2.000000,-1.000000,-3.000000,-2.000000,-1.000000,1.000000,0.562500,-0.125000,0.187500,-0.388184,0.330566,0.832031
Sun May 14 14:39:32 2017,-3.000000,-3.000000,-4.000000,-1.000000,-1.000000,0.000000,-1.000000,-3.000000,0.562500,-0.125000,0.187500,-0.388184,0.330566,0.832031
Sun May 14 14:39:32 2017,-3.000000,-3.000000,-4.000000,-1.000000,-1.000000,0.000000,-1.000000,-3.000000,0.562500,-0.125000,0.187500,-0.388184,0.330566,0.832031
Sun May 14 14:39:32 2017,2.000000,0.000000,1.000000,0.000000,-1.000000,-1.000000,1.000000,2.000000,0.562500,-0.125000,0.187500,-0.388184,0.330566,0.832031
Sun May 14 14:39:32 2017,-3.000000,0.000000,-2.000000,-1.000000,-2.000000,-1.000000,-1.000000,-2.000000,0.625000,0.062500,0.250000,-0.391602,0.330566,0.833984
Sun May 14 14:39:32 2017,-3.000000,0.000000,-2.000000,-1.000000,-2.000000,-1.000000,-1.000000,-2.000000,0.625000,0.062500,0.250000,-0.391602,0.330566,0.833984
Sun May 14 14:39:32 2017,-3.000000,0.000000,-2.000000,-1.000000,-2.000000,-1.000000,-1.000000,-2.000000,0.625000,0.062500,0.250000,-0.391602,0.330566,0.833984
Sun May 14 14:39:32 2017,-1.000000,-2.000000,-1.000000,-1.000000,-3.000000,0.000000,-2.000000,-1.000000,0.625000,0.062500,0.187500,-0.382812,0.336426,0.834961
Sun May 14 14:39:32 2017,-1.000000,-2.000000,-1.000000,-1.000000,-3.000000,0.000000,-2.000000,-1.000000,0.625000,0.062500,0.187500,-0.382812,0.336426,0.834961
Sun May 14 14:39:32 2017,-1.000000,-2.000000,-1.000000,-1.000000,-3.000000,0.000000,-2.000000,-1.000000,0.625000,0.062500,0.187500,-0.382812,0.336426,0.834961
Sun May 14 14:39:32 2017,1.000000,2.000000,-4.000000,-3.000000,-3.000000,-6.000000,0.000000,-1.000000,0.625000,0.125000,0.250000,-0.391602,0.329102,0.839355
Sun May 14 14:39:32 2017,8.000000,9.000000,3.000000,1.000000,0.000000,-1.000000,0.000000,4.000000,0.625000,0.125000,0.250000,-0.391602,0.329102,0.839355
Sun May 14 14:39:32 2017,8.000000,9.000000,3.000000,1.000000,0.000000,-1.000000,0.000000,4.000000,0.625000,0.125000,0.250000,-0.391602,0.329102,0.839355
Sun May 14 14:39:32 2017,1.000000,2.000000,-1.000000,-1.000000,-2.000000,-2.000000,-1.000000,1.000000,0.625000,0.125000,0.250000,-0.391602,0.329102,0.839355
Sun May 14 14:39:32 2017,2.000000,-2.000000,-2.000000,0.000000,2.000000,1.000000,-2.000000,-1.000000,0.750000,0.000000,0.000000,-0.389648,0.327637,0.838867
Sun May 14 14:39:32 2017,2.000000,-2.000000,-2.000000,0.000000,2.000000,1.000000,-2.000000,-1.000000,0.750000,0.000000,0.000000,-0.389648,0.327637,0.838867
Sun May 14 14:39:32 2017,2.000000,-2.000000,-2.000000,0.000000,2.000000,1.000000,-2.000000,-1.000000,0.750000,0.000000,0.000000,-0.389648,0.327637,0.838867
Sun May 14 14:39:32 2017,-9.000000,-7.000000,-3.000000,1.000000,3.000000,1.000000,-1.000000,0.000000,0.687500,-0.062500,0.062500,-0.387695,0.330078,0.842773
Sun May 14 14:39:32 2017,-9.000000,-7.000000,-3.000000,1.000000,3.000000,1.000000,-1.000000,0.000000,0.687500,-0.062500,0.062500,-0.387695,0.330078,0.842773
Sun May 14 14:39:32 2017,-9.000000,-7.000000,-3.000000,1.000000,3.000000,1.000000,-1.000000,0.000000,0.687500,-0.062500,0.062500,-0.387695,0.330078,0.842773
Sun May 14 14:39:32 2017,0.000000,4.000000,3.000000,3.000000,1.000000,3.000000,8.000000,1.000000,0.625000,-0.062500,0.250000,-0.384277,0.333984,0.844238
Sun May 14 14:39:32 2017,-3.000000,-3.000000,-2.000000,-3.000000,-1.000000,-1.000000,-1.000000,-1.000000,0.625000,-0.062500,0.250000,-0.384277,0.333984,0.844238
Sun May 14 14:39:32 2017,-3.000000,-3.000000,-2.000000,-3.000000,-1.000000,-1.000000,-1.000000,-1.000000,0.625000,-0.062500,0.250000,-0.384277,0.333984,0.844238
Sun May 14 14:39:32 2017,4.000000,0.000000,-1.000000,-1.000000,4.000000,9.000000,-2.000000,-5.000000,0.625000,-0.062500,0.250000,-0.384277,0.333984,0.844238
Sun May 14 14:39:32 2017,1.000000,2.000000,0.000000,-3.000000,-7.000000,-3.000000,1.000000,1.000000,0.750000,-0.187500,0.125000,-0.389160,0.330566,0.840820
Sun May 14 14:39:32 2017,1.000000,2.000000,0.000000,-3.000000,-7.000000,-3.000000,1.000000,1.000000,0.750000,-0.187500,0.125000,-0.389160,0.330566,0.840820
Sun May 14 14:39:32 2017,1.000000,2.000000,0.000000,-3.000000,-7.000000,-3.000000,1.000000,1.000000,0.750000,-0.187500,0.125000,-0.389160,0.330566,0.840820
Sun May 14 14:39:32 2017,1.000000,2.000000,5.000000,1.000000,1.000000,0.000000,-2.000000,4.000000,0.312500,-0.312500,0.000000,-0.389648,0.335449,0.837402
Sun May 14 14:39:32 2017,1.000000,2.000000,5.000000,1.000000,1.000000,0.000000,-2.000000,4.000000,0.312500,-0.312500,0.000000,-0.389648,0.335449,0.837402
Sun May 14 14:39:32 2017,1.000000,2.000000,5.000000,1.000000,1.000000,0.000000,-2.000000,4.000000,0.312500,-0.312500,0.000000,-0.389648,0.335449,0.837402
Sun May 14 14:39:32 2017,-4.000000,-6.000000,-6.000000,-1.000000,-2.000000,-3.000000,-4.000000,-2.000000,0.000000,-0.250000,0.250000,-0.387695,0.333008,0.836426
Sun May 14 14:39:32 2017,1.000000,0.000000,-1.000000,2.000000,3.000000,2.000000,1.000000,-2.000000,0.000000,-0.250000,0.250000,-0.387695,0.333008,0.836426
Sun May 14 14:39:32 2017,1.000000,0.000000,-1.000000,2.000000,3.000000,2.000000,1.000000,-2.000000,0.000000,-0.250000,0.250000,-0.387695,0.333008,0.836426
Sun May 14 14:39:32 2017,-2.000000,-2.000000,0.000000,-1.000000,1.000000,4.000000,0.000000,1.000000,0.000000,-0.250000,0.250000,-0.387695,0.333008,0.836426
Sun May 14 14:39:32 2017,-2.000000,-4.000000,-4.000000,-2.000000,-3.000000,0.000000,-2.000000,-4.000000,-0.187500,-0.062500,0.437500,-0.387207,0.331543,0.836426
Sun May 14 14:39:32 2017,-2.000000,-4.000000,-4.000000,-2.000000,-3.000000,0.000000,-2.000000,-4.000000,-0.187500,-0.062500,0.437500,-0.387207,0.331543,0.836426
Sun May 14 14:39:32 2017,-2.000000,-4.000000,-4.000000,-2.000000,-3.000000,0.000000,-2.000000,-4.000000,-0.187500,-0.062500,0.437500,-0.387207,0.331543,0.836426
Sun May 14 14:39:32 2017,-3.000000,-1.000000,-3.000000,-2.000000,-4.000000,-4.000000,-1.000000,-3.000000,0.187500,0.125000,0.312500,-0.386230,0.329590,0.840332
Sun May 14 14:39:32 2017,-3.000000,-1.000000,-3.000000,-2.000000,-4.000000,-4.000000,-1.000000,-3.000000,0.187500,0.125000,0.312500,-0.386230,0.329590,0.840332
Sun May 14 14:39:32 2017,-3.000000,-1.000000,-3.000000,-2.000000,-4.000000,-4.000000,-1.000000,-3.000000,0.187500,0.125000,0.312500,-0.386230,0.329590,0.840332
Sun May 14 14:39:32 2017,-3.000000,-1.000000,-3.000000,-2.000000,-4.000000,-4.000000,-1.000000,-3.000000,0.187500,0.125000,0.312500,-0.386230,0.329590,0.840332
Sun May 14 14:39:32 2017,1.000000,1.000000,2.000000,-2.000000,-3.000000,-5.000000,-1.000000,0.000000,0.375000,0.000000,0.125000,-0.389160,0.330566,0.837891
Sun May 14 14:39:32 2017,1.000000,1.000000,2.000000,-2.000000,-3.000000,-5.000000,-1.000000,0.000000,0.375000,0.000000,0.125000,-0.389160,0.330566,0.837891
Sun May 14 14:39:32 2017,1.000000,1.000000,2.000000,-2.000000,-3.000000,-5.000000,-1.000000,0.000000,0.375000,0.000000,0.125000,-0.389160,0.330566,0.837891
Sun May 14 14:39:32 2017,2.000000,0.000000,-1.000000,2.000000,0.000000,1.000000,0.000000,-1.000000,0.375000,0.000000,0.125000,-0.389160,0.330566,0.837891
Sun May 14 14:39:32 2017,-3.000000,3.000000,4.000000,2.000000,0.000000,1.000000,-1.000000,2.000000,0.187500,0.312500,0.187500,-0.388672,0.330078,0.836426
Sun May 14 14:39:32 2017,-3.000000,3.000000,4.000000,2.000000,0.000000,1.000000,-1.000000,2.000000,0.187500,0.312500,0.187500,-0.388672,0.330078,0.836426
Sun May 14 14:39:32 2017,-1.000000,-3.000000,-3.000000,-3.000000,-1.000000,-1.000000,0.000000,0.000000,0.625000,0.312500,0.312500,-0.385254,0.332031,0.840332
Sun May 14 14:39:32 2017,-1.000000,-3.000000,-3.000000,-3.000000,-1.000000,-1.000000,0.000000,0.000000,0.625000,0.312500,0.312500,-0.385254,0.332031,0.840332
Sun May 14 14:39:32 2017,-1.000000,-3.000000,-3.000000,-3.000000,-1.000000,-1.000000,0.000000,0.000000,0.625000,0.312500,0.312500,-0.385254,0.332031,0.840332
Sun May 14 14:39:32 2017,-1.000000,-3.000000,-3.000000,-3.000000,-1.000000,-1.000000,0.000000,0.000000,0.625000,0.312500,0.312500,-0.385254,0.332031,0.840332
Sun May 14 14:39:32 2017,-2.000000,-2.000000,-1.000000,-2.000000,-2.000000,-2.000000,-3.000000,-3.000000,0.812500,0.125000,0.125000,-0.380371,0.333008,0.845215
Sun May 14 14:39:32 2017,-2.000000,-2.000000,-1.000000,-2.000000,-2.000000,-2.000000,-3.000000,-3.000000,0.812500,0.125000,0.125000,-0.380371,0.333008,0.845215
Sun May 14 14:39:32 2017,-2.000000,-2.000000,-1.000000,-2.000000,-2.000000,-2.000000,-3.000000,-3.000000,0.812500,0.125000,0.125000,-0.380371,0.333008,0.845215
Sun May 14 14:39:32 2017,-2.000000,-2.000000,-1.000000,-2.000000,-2.000000,-2.000000,-3.000000,-3.000000,0.812500,0.125000,0.125000,-0.380371,0.333008,0.845215
Sun May 14 14:39:32 2017,0.000000,2.000000,-4.000000,0.000000,-2.000000,-1.000000,0.000000,-2.000000,0.437500,-0.125000,0.125000,-0.388184,0.333008,0.841797
Sun May 14 14:39:32 2017,0.000000,2.000000,-4.000000,0.000000,-2.000000,-1.000000,0.000000,-2.000000,0.437500,-0.125000,0.125000,-0.388184,0.333008,0.841797
Sun May 14 14:39:32 2017,-5.000000,1.000000,0.000000,0.000000,0.000000,2.000000,-2.000000,-3.000000,-0.500000,0.000000,0.375000,-0.388184,0.336426,0.838867
Sun May 14 14:39:32 2017,-3.000000,-3.000000,-2.000000,-3.000000,-3.000000,-5.000000,-4.000000,0.000000,-0.500000,0.000000,0.375000,-0.388184,0.336426,0.838867
Sun May 14 14:39:32 2017,-3.000000,-3.000000,-2.000000,-3.000000,-3.000000,-5.000000,-4.000000,0.000000,-0.500000,0.000000,0.375000,-0.388184,0.336426,0.838867
Sun May 14 14:39:32 2017,-3.000000,-3.000000,-2.000000,-3.000000,-3.000000,-5.000000,-4.000000,0.000000,-0.500000,0.000000,0.375000,-0.388184,0.336426,0.838867
Sun May 14 14:39:32 2017,3.000000,-2.000000,0.000000,1.000000,0.000000,4.000000,0.000000,-1.000000,-0.687500,0.125000,0.625000,-0.388672,0.331543,0.834961
Sun May 14 14:39:32 2017,3.000000,-2.000000,0.000000,1.000000,0.000000,4.000000,0.000000,-1.000000,-0.687500,0.125000,0.625000,-0.388672,0.331543,0.834961
Sun May 14 14:39:32 2017,3.000000,-2.000000,0.000000,1.000000,0.000000,4.000000,0.000000,-1.000000,-0.687500,0.125000,0.625000,-0.388672,0.331543,0.834961
Sun May 14 14:39:32 2017,3.000000,-2.000000,0.000000,1.000000,0.000000,4.000000,0.000000,-1.000000,-0.687500,0.125000,0.625000,-0.388672,0.331543,0.834961
Sun May 14 14:39:32 2017,3.000000,4.000000,-1.000000,0.000000,0.000000,1.000000,1.000000,0.000000,-0.375000,0.312500,0.375000,-0.385742,0.324707,0.840820
Sun May 14 14:39:32 2017,3.000000,4.000000,-1.000000,0.000000,0.000000,1.000000,1.000000,0.000000,-0.375000,0.312500,0.375000,-0.385742,0.324707,0.840820
Sun May 14 14:39:32 2017,-6.000000,-4.000000,-5.000000,-1.000000,-1.000000,-2.000000,-2.000000,-4.000000,0.937500,0.562500,0.125000,-0.389160,0.326172,0.837891
Sun May 14 14:39:32 2017,-6.000000,-4.000000,-5.000000,-1.000000,-1.000000,-2.000000,-2.000000,-4.000000,0.937500,0.562500,0.125000,-0.389160,0.326172,0.837891
Sun May 14 14:39:32 2017,-6.000000,-4.000000,-5.000000,-1.000000,-1.000000,-2.000000,-2.000000,-4.000000,0.937500,0.562500,0.125000,-0.389160,0.326172,0.837891
Sun May 14 14:39:32 2017,-6.000000,-4.000000,-5.000000,-1.000000,-1.000000,-2.000000,-2.000000,-4.000000,0.937500,0.562500,0.125000,-0.389160,0.326172,0.837891
Sun May 14 14:39:32 2017,-5.000000,-1.000000,2.000000,0.000000,0.000000,-1.000000,4.000000,-1.000000,1.000000,0.250000,-0.312500,-0.382324,0.330566,0.840332
Sun May 14 14:39:32 2017,-5.000000,-1.000000,2.000000,0.000000,0.000000,-1.000000,4.000000,-1.000000,1.000000,0.250000,-0.312500,-0.382324,0.330566,0.840332
Sun May 14 14:39:32 2017,-5.000000,-1.000000,2.000000,0.000000,0.000000,-1.000000,4.000000,-1.000000,1.000000,0.250000,-0.312500,-0.382324,0.330566,0.840332
Sun May 14 14:39:32 2017,-2.000000,-1.000000,2.000000,-1.000000,0.000000,-1.000000,0.000000,3.000000,1.000000,0.250000,-0.312500,-0.382324,0.330566,0.840332
Sun May 14 14:39:32 2017,-1.000000,-1.000000,2.000000,0.000000,-3.000000,-2.000000,0.000000,3.000000,0.312500,-0.062500,-0.250000,-0.387207,0.333984,0.839844
Sun May 14 14:39:32 2017,-1.000000,-1.000000,2.000000,0.000000,-3.000000,-2.000000,0.000000,3.000000,0.312500,-0.062500,-0.250000,-0.387207,0.333984,0.839844
Sun May 14 14:39:32 2017,-5.000000,-3.000000,-2.000000,-1.000000,-1.000000,-3.000000,0.000000,-1.000000,-0.625000,-0.062500,0.187500,-0.387695,0.338867,0.841309
Sun May 14 14:39:32 2017,2.000000,-1.000000,0.000000,1.000000,2.000000,0.000000,-1.000000,0.000000,-0.625000,-0.062500,0.187500,-0.387695,0.338867,0.841309
Sun May 14 14:39:32 2017,2.000000,-1.000000,0.000000,1.000000,2.000000,0.000000,-1.000000,0.000000,-0.625000,-0.062500,0.187500,-0.387695,0.338867,0.841309
Sun May 14 14:39:32 2017,2.000000,-1.000000,0.000000,1.000000,2.000000,0.000000,-1.000000,0.000000,-0.625000,-0.062500,0.187500,-0.387695,0.338867,0.841309
Sun May 14 14:39:32 2017,-1.000000,-2.000000,-3.000000,0.000000,2.000000,2.000000,-3.000000,-5.000000,-0.625000,-0.187500,0.562500,-0.389160,0.334961,0.840332
Sun May 14 14:39:32 2017,-1.000000,-2.000000,-3.000000,0.000000,2.000000,2.000000,-3.000000,-5.000000,-0.625000,-0.187500,0.562500,-0.389160,0.334961,0.840332
Sun May 14 14:39:32 2017,-1.000000,-2.000000,-3.000000,0.000000,2.000000,2.000000,-3.000000,-5.000000,-0.625000,-0.187500,0.562500,-0.389160,0.334961,0.840332
Sun May 14 14:39:32 2017,1.000000,2.000000,-2.000000,-3.000000,0.000000,-1.000000,1.000000,0.000000,-0.125000,-0.437500,0.437500,-0.394043,0.331543,0.837891
Sun May 14 14:39:32 2017,-2.000000,-2.000000,-2.000000,-2.000000,-1.000000,-5.000000,-3.000000,0.000000,-0.125000,-0.437500,0.437500,-0.394043,0.331543,0.837891
Sun May 14 14:39:32 2017,-2.000000,-2.000000,-2.000000,-2.000000,-1.000000,-5.000000,-3.000000,0.000000,-0.125000,-0.437500,0.437500,-0.394043,0.331543,0.837891
Sun May 14 14:39:32 2017,2.000000,0.000000,2.000000,1.000000,1.000000,2.000000,1.000000,0.000000,0.000000,-0.375000,0.375000,-0.393555,0.333496,0.836914
Sun May 14 14:39:32 2017,-1.000000,-1.000000,-2.000000,-2.000000,-4.000000,-2.000000,-3.000000,-1.000000,0.000000,-0.375000,0.375000,-0.393555,0.333496,0.836914
Sun May 14 14:39:32 2017,-1.000000,-1.000000,-2.000000,-2.000000,-4.000000,-2.000000,-3.000000,-1.000000,0.000000,-0.375000,0.375000,-0.393555,0.333496,0.836914
Sun May 14 14:39:32 2017,-1.000000,-1.000000,-2.000000,-2.000000,-4.000000,-2.000000,-3.000000,-1.000000,0.000000,-0.375000,0.375000,-0.393555,0.333496,0.836914
Sun May 14 14:39:32 2017,1.000000,0.000000,5.000000,1.000000,0.000000,0.000000,0.000000,3.000000,-0.625000,-0.250000,0.500000,-0.387207,0.327637,0.839355
Sun May 14 14:39:32 2017,1.000000,0.000000,5.000000,1.000000,0.000000,0.000000,0.000000,3.000000,-0.625000,-0.250000,0.500000,-0.387207,0.327637,0.839355
Sun May 14 14:39:32 2017,1.000000,0.000000,5.000000,1.000000,0.000000,0.000000,0.000000,3.000000,-0.625000,-0.250000,0.500000,-0.387207,0.327637,0.839355
Sun May 14 14:39:32 2017,1.000000,0.000000,5.000000,1.000000,0.000000,0.000000,0.000000,3.000000,-0.625000,-0.250000,0.500000,-0.387207,0.327637,0.839355
Sun May 14 14:39:32 2017,1.000000,0.000000,-1.000000,-1.000000,-2.000000,-5.000000,-7.000000,-2.000000,-0.625000,0.062500,0.562500,-0.383789,0.330566,0.833496
Sun May 14 14:39:32 2017,1.000000,0.000000,-1.000000,-1.000000,-2.000000,-5.000000,-7.000000,-2.000000,-0.625000,0.062500,0.562500,-0.383789,0.330566,0.833496
Sun May 14 14:39:32 2017,-3.000000,-3.000000,-4.000000,-2.000000,-3.000000,-5.000000,-1.000000,-4.000000,-0.625000,0.062500,0.562500,-0.383789,0.330566,0.833496
Sun May 14 14:39:32 2017,-3.000000,-3.000000,-4.000000,-2.000000,-3.000000,-5.000000,-1.000000,-4.000000,-0.625000,0.062500,0.562500,-0.383789,0.330566,0.833496
Sun May 14 14:39:32 2017,-1.000000,-2.000000,-4.000000,-1.000000,-4.000000,-2.000000,2.000000,-3.000000,0.000000,0.187500,0.125000,-0.388184,0.327637,0.838867
Sun May 14 14:39:32 2017,-1.000000,-2.000000,-4.000000,-1.000000,-4.000000,-2.000000,2.000000,-3.000000,0.000000,0.187500,0.125000,-0.388184,0.327637,0.838867
Sun May 14 14:39:32 2017,1.000000,0.000000,-4.000000,-2.000000,0.000000,1.000000,0.000000,0.000000,0.187500,0.187500,-0.125000,-0.391602,0.328613,0.844727
Sun May 14 14:39:32 2017,1.000000,0.000000,-4.000000,-2.000000,0.000000,1.000000,0.000000,0.000000,0.187500,0.187500,-0.125000,-0.391602,0.328613,0.844727
Sun May 14 14:39:32 2017,1.000000,0.000000,-4.000000,-2.000000,0.000000,1.000000,0.000000,0.000000,0.187500,0.187500,-0.125000,-0.391602,0.328613,0.844727
Sun May 14 14:39:32 2017,1.000000,0.000000,-4.000000,-2.000000,0.000000,1.000000,0.000000,0.000000,0.187500,0.187500,-0.125000,-0.391602,0.328613,0.844727
Sun May 14 14:39:32 2017,-2.000000,-1.000000,-2.000000,-4.000000,-3.000000,-8.000000,-2.000000,-2.000000,0.000000,0.125000,-0.062500,-0.388672,0.329102,0.841309
Sun May 14 14:39:32 2017,-2.000000,-1.000000,-2.000000,-4.000000,-3.000000,-8.000000,-2.000000,-2.000000,0.000000,0.125000,-0.062500,-0.388672,0.329102,0.841309
Sun May 14 14:39:32 2017,-4.000000,-2.000000,-5.000000,-3.000000,-4.000000,-6.000000,-2.000000,-2.000000,0.000000,0.125000,-0.062500,-0.388672,0.329102,0.841309
Sun May 14 14:39:32 2017,-4.000000,-2.000000,-5.000000,-3.000000,-4.000000,-6.000000,-2.000000,-2.000000,0.062500,0.250000,0.125000,-0.386719,0.330078,0.835938
Sun May 14 14:39:32 2017,0.000000,-1.000000,1.000000,1.000000,-3.000000,0.000000,0.000000,0.000000,0.062500,0.250000,0.125000,-0.386719,0.330078,0.835938
Sun May 14 14:39:32 2017,0.000000,-1.000000,1.000000,1.000000,-3.000000,0.000000,0.000000,0.000000,0.062500,0.250000,0.125000,-0.386719,0.330078,0.835938
Sun May 14 14:39:32 2017,-4.000000,-3.000000,-2.000000,-2.000000,0.000000,-1.000000,-1.000000,-3.000000,0.250000,0.187500,0.125000,-0.384277,0.334961,0.836914
Sun May 14 14:39:32 2017,0.000000,1.000000,-1.000000,-1.000000,3.000000,3.000000,2.000000,1.000000,0.250000,0.187500,0.125000,-0.384277,0.334961,0.836914
Sun May 14 14:39:32 2017,0.000000,1.000000,-1.000000,-1.000000,3.000000,3.000000,2.000000,1.000000,0.250000,0.187500,0.125000,-0.384277,0.334961,0.836914
Sun May 14 14:39:32 2017,0.000000,1.000000,-1.000000,-1.000000,3.000000,3.000000,2.000000,1.000000,0.250000,0.187500,0.125000,-0.384277,0.334961,0.836914
Sun May 14 14:39:32 2017,-2.000000,-4.000000,-3.000000,1.000000,0.000000,-1.000000,-2.000000,-4.000000,-0.125000,0.187500,0.125000,-0.389160,0.336426,0.839355
Sun May 14 14:39:32 2017,-2.000000,-4.000000,-3.000000,1.000000,0.000000,-1.000000,-2.000000,-4.000000,-0.125000,0.187500,0.125000,-0.389160,0.336426,0.839355
Sun May 14 14:39:32 2017,-2.000000,-4.000000,-3.000000,1.000000,0.000000,-1.000000,-2.000000,-4.000000,-0.125000,0.187500,0.125000,-0.389160,0.336426,0.839355
Sun May 14 14:39:32 2017,-1.000000,-1.000000,-2.000000,-2.000000,-3.000000,-4.000000,-3.000000,-1.000000,-0.312500,-0.062500,0.125000,-0.386719,0.330078,0.839844
Sun May 14 14:39:32 2017,-4.000000,-4.000000,-2.000000,-1.000000,0.000000,1.000000,-1.000000,-3.000000,-0.312500,-0.062500,0.125000,-0.386719,0.330078,0.839844
Sun May 14 14:39:32 2017,-4.000000,-4.000000,-2.000000,-1.000000,0.000000,1.000000,-1.000000,-3.000000,-0.312500,-0.062500,0.125000,-0.386719,0.330078,0.839844
Sun May 14 14:39:32 2017,1.000000,0.000000,3.000000,2.000000,-1.000000,-3.000000,2.000000,0.000000,-0.437500,-0.125000,0.250000,-0.389648,0.331055,0.837891
Sun May 14 14:39:32 2017,-4.000000,-3.000000,-1.000000,-2.000000,-2.000000,-4.000000,-1.000000,-1.000000,-0.437500,-0.125000,0.250000,-0.389648,0.331055,0.837891
Sun May 14 14:39:32 2017,-4.000000,-3.000000,-1.000000,-2.000000,-2.000000,-4.000000,-1.000000,-1.000000,-0.437500,-0.125000,0.250000,-0.389648,0.331055,0.837891
Sun May 14 14:39:32 2017,-4.000000,-3.000000,-1.000000,-2.000000,-2.000000,-4.000000,-1.000000,-1.000000,-0.437500,-0.125000,0.250000,-0.389648,0.331055,0.837891
Sun May 14 14:39:32 2017,0.000000,0.000000,0.000000,-6.000000,-3.000000,0.000000,-3.000000,0.000000,0.250000,-0.125000,0.375000,-0.390137,0.327148,0.835938
Sun May 14 14:39:32 2017,0.000000,0.000000,0.000000,-6.000000,-3.000000,0.000000,-3.000000,0.000000,0.250000,-0.125000,0.375000,-0.390137,0.327148,0.835938
Sun May 14 14:39:33 2017,0.000000,0.000000,0.000000,-6.000000,-3.000000,0.000000,-3.000000,0.000000,0.250000,-0.125000,0.375000,-0.390137,0.327148,0.835938
Sun May 14 14:39:33 2017,-1.000000,-2.000000,-2.000000,0.000000,-3.000000,-2.000000,-4.000000,-2.000000,0.687500,-0.250000,0.062500,-0.388672,0.333496,0.838867
Sun May 14 14:39:33 2017,2.000000,-2.000000,-3.000000,-2.000000,1.000000,1.000000,1.000000,0.000000,0.687500,-0.250000,0.062500,-0.388672,0.333496,0.838867
Sun May 14 14:39:33 2017,2.000000,-2.000000,-3.000000,-2.000000,1.000000,1.000000,1.000000,0.000000,0.687500,-0.250000,0.062500,-0.388672,0.333496,0.838867
Sun May 14 14:39:33 2017,2.000000,-2.000000,-3.000000,-2.000000,1.000000,1.000000,1.000000,0.000000,0.687500,-0.250000,0.062500,-0.388672,0.333496,0.838867
Sun May 14 14:39:33 2017,-3.000000,-4.000000,-2.000000,0.000000,-2.000000,0.000000,0.000000,-5.000000,0.625000,-0.125000,0.000000,-0.387207,0.335449,0.836426
Sun May 14 14:39:33 2017,-3.000000,-4.000000,-2.000000,0.000000,-2.000000,0.000000,0.000000,-5.000000,0.625000,-0.125000,0.000000,-0.387207,0.335449,0.836426
Sun May 14 14:39:33 2017,-3.000000,-4.000000,-2.000000,0.000000,-2.000000,0.000000,0.000000,-5.000000,0.625000,-0.125000,0.000000,-0.387207,0.335449,0.836426
Sun May 14 14:39:33 2017,-3.000000,-4.000000,-2.000000,0.000000,-2.000000,0.000000,0.000000,-5.000000,0.625000,-0.125000,0.000000,-0.387207,0.335449,0.836426
Sun May 14 14:39:33 2017,-5.000000,1.000000,0.000000,1.000000,2.000000,5.000000,0.000000,0.000000,0.062500,-0.125000,0.250000,-0.388184,0.332520,0.839355
Sun May 14 14:39:33 2017,-5.000000,1.000000,0.000000,1.000000,2.000000,5.000000,0.000000,0.000000,0.062500,-0.125000,0.250000,-0.388184,0.332520,0.839355
Sun May 14 14:39:33 2017,3.000000,-2.000000,1.000000,0.000000,1.000000,1.000000,1.000000,-2.000000,0.062500,-0.125000,0.250000,-0.388184,0.332520,0.839355
Sun May 14 14:39:33 2017,1.000000,1.000000,1.000000,-2.000000,-3.000000,-3.000000,1.000000,1.000000,-0.250000,-0.062500,0.437500,-0.388184,0.332520,0.838867
Sun May 14 14:39:33 2017,1.000000,1.000000,1.000000,-2.000000,-3.000000,-3.000000,1.000000,1.000000,-0.250000,-0.062500,0.437500,-0.388184,0.332520,0.838867
Sun May 14 14:39:33 2017,1.000000,1.000000,1.000000,-2.000000,-3.000000,-3.000000,1.000000,1.000000,-0.250000,-0.062500,0.437500,-0.388184,0.332520,0.838867
Sun May 14 14:39:33 2017,2.000000,1.000000,3.000000,-1.000000,0.000000,0.000000,-3.000000,2.000000,-0.375000,0.000000,0.375000,-0.389160,0.329102,0.841797
Sun May 14 14:39:33 2017,2.000000,1.000000,3.000000,-1.000000,0.000000,0.000000,-3.000000,2.000000,-0.375000,0.000000,0.375000,-0.389160,0.329102,0.841797
Sun May 14 14:39:33 2017,2.000000,1.000000,3.000000,-1.000000,0.000000,0.000000,-3.000000,2.000000,-0.375000,0.000000,0.375000,-0.389160,0.329102,0.841797
Sun May 14 14:39:33 2017,2.000000,1.000000,3.000000,-1.000000,0.000000,0.000000,-3.000000,2.000000,-0.375000,0.000000,0.375000,-0.389160,0.329102,0.841797
Sun May 14 14:39:33 2017,-1.000000,-4.000000,-1.000000,-1.000000,-1.000000,0.000000,-1.000000,-4.000000,-0.250000,-0.187500,0.312500,-0.387695,0.329102,0.836426
Sun May 14 14:39:33 2017,-1.000000,-4.000000,-1.000000,-1.000000,-1.000000,0.000000,-1.000000,-4.000000,-0.250000,-0.187500,0.312500,-0.387695,0.329102,0.836426
Sun May 14 14:39:33 2017,1.000000,1.000000,1.000000,-1.000000,-3.000000,-2.000000,-1.000000,-2.000000,-0.250000,-0.187500,0.312500,-0.387695,0.329102,0.836426
Sun May 14 14:39:33 2017,1.000000,1.000000,1.000000,-1.000000,-3.000000,-2.000000,-1.000000,-2.000000,-0.250000,-0.187500,0.312500,-0.387695,0.329102,0.836426
Sun May 14 14:39:33 2017,-3.000000,-2.000000,-4.000000,1.000000,-2.000000,-3.000000,-3.000000,-5.000000,0.125000,0.062500,0.437500,-0.386719,0.332031,0.843750
Sun May 14 14:39:33 2017,-3.000000,-2.000000,-4.000000,1.000000,-2.000000,-3.000000,-3.000000,-5.000000,0.125000,0.062500,0.437500,-0.386719,0.332031,0.843750
Sun May 14 14:39:33 2017,-4.000000,-2.000000,-3.000000,-1.000000,-4.000000,-7.000000,-5.000000,-2.000000,0.687500,-0.125000,0.375000,-0.389648,0.331055,0.839844
Sun May 14 14:39:33 2017,-4.000000,-2.000000,-3.000000,-1.000000,-4.000000,-7.000000,-5.000000,-2.000000,0.687500,-0.125000,0.375000,-0.389648,0.331055,0.839844
Sun May 14 14:39:33 2017,-4.000000,-2.000000,-3.000000,-1.000000,-4.000000,-7.000000,-5.000000,-2.000000,0.687500,-0.125000,0.375000,-0.389648,0.331055,0.839844
Sun May 14 14:39:33 2017,-4.000000,-2.000000,-3.000000,-1.000000,-4.000000,-7.000000,-5.000000,-2.000000,0.687500,-0.125000,0.375000,-0.389648,0.331055,0.839844
Sun May 14 14:39:33 2017,-1.000000,0.000000,-3.000000,0.000000,-1.000000,-1.000000,-2.000000,1.000000,-1.812500,1.500000,1.562500,-0.386230,0.334473,0.837402
Sun May 14 14:39:33 2017,-1.000000,0.000000,-3.000000,0.000000,-1.000000,-1.000000,-2.000000,1.000000,-1.812500,1.500000,1.562500,-0.386230,0.334473,0.837402
Sun May 14 14:39:33 2017,-1.000000,-4.000000,-2.000000,-2.000000,-2.000000,-1.000000,-1.000000,-3.000000,-1.812500,1.500000,1.562500,-0.386230,0.334473,0.837402
Sun May 14 14:39:33 2017,-1.000000,-4.000000,-2.000000,-2.000000,-2.000000,-1.000000,-1.000000,-3.000000,-1.812500,1.500000,1.562500,-0.386230,0.334473,0.837402
Sun May 14 14:39:33 2017,2.000000,6.000000,5.000000,3.000000,5.000000,9.000000,4.000000,4.000000,-2.625000,0.937500,-0.312500,-0.395020,0.337891,0.825195
Sun May 14 14:39:33 2017,2.000000,6.000000,5.000000,3.000000,5.000000,9.000000,4.000000,4.000000,-2.625000,0.937500,-0.312500,-0.395020,0.337891,0.825195
Sun May 14 14:39:33 2017,-2.000000,-2.000000,-1.000000,-2.000000,1.000000,-1.000000,-3.000000,0.000000,-4.437500,-0.687500,0.187500,-0.390137,0.333008,0.830566
Sun May 14 14:39:33 2017,3.000000,-2.000000,-4.000000,-3.000000,2.000000,2.000000,0.000000,-2.000000,-4.437500,-0.687500,0.187500,-0.390137,0.333008,0.830566
Sun May 14 14:39:33 2017,3.000000,-2.000000,-4.000000,-3.000000,2.000000,2.000000,0.000000,-2.000000,-4.437500,-0.687500,0.187500,-0.390137,0.333008,0.830566
Sun May 14 14:39:33 2017,3.000000,-2.000000,-4.000000,-3.000000,2.000000,2.000000,0.000000,-2.000000,-4.437500,-0.687500,0.187500,-0.390137,0.333008,0.830566
Sun May 14 14:39:33 2017,-2.000000,-5.000000,-2.000000,-1.000000,-1.000000,16.000000,1.000000,-4.000000,-1.687500,0.312500,1.437500,-0.382812,0.318848,0.841797
Sun May 14 14:39:33 2017,-2.000000,-5.000000,-2.000000,-1.000000,-1.000000,16.000000,1.000000,-4.000000,-1.687500,0.312500,1.437500,-0.382812,0.318848,0.841797
Sun May 14 14:39:33 2017,-1.000000,-2.000000,-1.000000,-1.000000,-2.000000,-3.000000,-2.000000,-4.000000,-1.687500,0.312500,1.437500,-0.382812,0.318848,0.841797
Sun May 14 14:39:33 2017,2.000000,0.000000,2.000000,-3.000000,-2.000000,0.000000,0.000000,3.000000,-1.687500,0.312500,1.437500,-0.382812,0.318848,0.841797
Sun May 14 14:39:33 2017,1.000000,2.000000,-1.000000,-3.000000,-5.000000,-8.000000,-4.000000,-5.000000,0.750000,0.187500,0.125000,-0.399414,0.326660,0.837891
Sun May 14 14:39:33 2017,1.000000,2.000000,-1.000000,-3.000000,-5.000000,-8.000000,-4.000000,-5.000000,0.750000,0.187500,0.125000,-0.399414,0.326660,0.837891
Sun May 14 14:39:33 2017,9.000000,2.000000,-1.000000,0.000000,5.000000,10.000000,2.000000,-1.000000,0.750000,0.187500,0.125000,-0.399414,0.326660,0.837891
Sun May 14 14:39:33 2017,-3.000000,0.000000,-3.000000,-5.000000,-5.000000,-7.000000,1.000000,0.000000,1.625000,-0.312500,-0.312500,-0.391113,0.339844,0.837402
Sun May 14 14:39:33 2017,-3.000000,0.000000,-3.000000,-5.000000,-5.000000,-7.000000,1.000000,0.000000,1.625000,-0.312500,-0.312500,-0.391113,0.339844,0.837402
Sun May 14 14:39:33 2017,-3.000000,0.000000,-3.000000,-5.000000,-5.000000,-7.000000,1.000000,0.000000,1.625000,-0.312500,-0.312500,-0.391113,0.339844,0.837402
Sun May 14 14:39:33 2017,-2.000000,-4.000000,-1.000000,-1.000000,0.000000,-4.000000,-1.000000,1.000000,0.875000,0.062500,0.062500,-0.383301,0.336426,0.828613
Sun May 14 14:39:33 2017,-2.000000,-4.000000,-1.000000,-1.000000,0.000000,-4.000000,-1.000000,1.000000,0.875000,0.062500,0.062500,-0.383301,0.336426,0.828613
Sun May 14 14:39:33 2017,-2.000000,-4.000000,-1.000000,-1.000000,0.000000,-4.000000,-1.000000,1.000000,0.875000,0.062500,0.062500,-0.383301,0.336426,0.828613
Sun May 14 14:39:33 2017,-4.000000,-3.000000,-2.000000,1.000000,-8.000000,-4.000000,-2.000000,0.000000,0.875000,0.062500,0.062500,-0.383301,0.336426,0.828613
Sun May 14 14:39:33 2017,-2.000000,0.000000,1.000000,2.000000,2.000000,-2.000000,0.000000,-1.000000,0.000000,0.187500,0.437500,-0.388184,0.329590,0.837891
Sun May 14 14:39:33 2017,-2.000000,0.000000,1.000000,2.000000,2.000000,-2.000000,0.000000,-1.000000,0.000000,0.187500,0.437500,-0.388184,0.329590,0.837891
Sun May 14 14:39:33 2017,-2.000000,0.000000,1.000000,2.000000,2.000000,-2.000000,0.000000,-1.000000,0.000000,0.187500,0.437500,-0.388184,0.329590,0.837891
Sun May 14 14:39:33 2017,-5.000000,-3.000000,-3.000000,-1.000000,-3.000000,-5.000000,-1.000000,-4.000000,0.187500,0.375000,0.062500,-0.386719,0.327637,0.835449
Sun May 14 14:39:33 2017,-5.000000,-3.000000,-3.000000,-1.000000,-3.000000,-5.000000,-1.000000,-4.000000,0.187500,0.375000,0.062500,-0.386719,0.327637,0.835449
Sun May 14 14:39:33 2017,-5.000000,-3.000000,-3.000000,-1.000000,-3.000000,-5.000000,-1.000000,-4.000000,0.187500,0.375000,0.062500,-0.386719,0.327637,0.835449
Sun May 14 14:39:33 2017,0.000000,-2.000000,-4.000000,0.000000,-2.000000,-1.000000,-1.000000,-2.000000,0.500000,0.062500,0.062500,-0.388672,0.330078,0.834961
Sun May 14 14:39:33 2017,-1.000000,-2.000000,-2.000000,-1.000000,-2.000000,-1.000000,-2.000000,0.000000,0.500000,0.062500,0.062500,-0.388672,0.330078,0.834961
Sun May 14 14:39:33 2017,-1.000000,-2.000000,-2.000000,-1.000000,-2.000000,-1.000000,-2.000000,0.000000,0.500000,0.062500,0.062500,-0.388672,0.330078,0.834961
Sun May 14 14:39:33 2017,-1.000000,-1.000000,1.000000,1.000000,6.000000,3.000000,1.000000,-1.000000,0.500000,0.062500,0.062500,-0.388672,0.330078,0.834961
Sun May 14 14:39:33 2017,-1.000000,3.000000,2.000000,0.000000,-4.000000,-5.000000,-5.000000,-1.000000,0.937500,0.062500,0.312500,-0.390137,0.326660,0.837891
Sun May 14 14:39:33 2017,-1.000000,3.000000,2.000000,0.000000,-4.000000,-5.000000,-5.000000,-1.000000,0.937500,0.062500,0.312500,-0.390137,0.326660,0.837891
Sun May 14 14:39:33 2017,-1.000000,3.000000,2.000000,0.000000,-4.000000,-5.000000,-5.000000,-1.000000,0.937500,0.062500,0.312500,-0.390137,0.326660,0.837891
