Time Stamp,C0,C1,C2,C3,C4,C5,C6,C7,Gx,Gy,Gz,Ax,Ay,Az
Sun May 14 14:43:43 2017,-25.000000,-16.000000,-7.000000,-4.000000,-2.000000,-17.000000,-7.000000,2.000000,-5.625000,3.312500,3.687500,-0.039551,0.806641,0.526367
Sun May 14 14:43:43 2017,-11.000000,1.000000,1.000000,0.000000,-16.000000,21.000000,-2.000000,-7.000000,-4.000000,5.687500,2.500000,-0.029297,0.813965,0.536133
Sun May 14 14:43:43 2017,-11.000000,1.000000,1.000000,0.000000,-16.000000,21.000000,-2.000000,-7.000000,-4.000000,5.687500,2.500000,-0.029297,0.813965,0.536133
Sun May 14 14:43:43 2017,18.000000,-1.000000,-8.000000,-4.000000,1.000000,9.000000,8.000000,-4.000000,-4.000000,5.687500,2.500000,-0.029297,0.813965,0.536133
Sun May 14 14:43:43 2017,-1.000000,-13.000000,-9.000000,-3.000000,-16.000000,-37.000000,-22.000000,-11.000000,-5.937500,7.500000,1.062500,-0.024902,0.814941,0.576172
Sun May 14 14:43:43 2017,-1.000000,-13.000000,-9.000000,-3.000000,-16.000000,-37.000000,-22.000000,-11.000000,-5.937500,7.500000,1.062500,-0.024902,0.814941,0.576172
Sun May 14 14:43:43 2017,-1.000000,-13.000000,-9.000000,-3.000000,-16.000000,-37.000000,-22.000000,-11.000000,-5.937500,7.500000,1.062500,-0.024902,0.814941,0.576172
Sun May 14 14:43:43 2017,-9.000000,-11.000000,-7.000000,-6.000000,-6.000000,-4.000000,-2.000000,-5.000000,-10.437500,4.500000,-1.125000,-0.025879,0.774414,0.567871
Sun May 14 14:43:43 2017,-9.000000,-11.000000,-7.000000,-6.000000,-6.000000,-4.000000,-2.000000,-5.000000,-10.437500,4.500000,-1.125000,-0.025879,0.774414,0.567871
Sun May 14 14:43:43 2017,-9.000000,-11.000000,-7.000000,-6.000000,-6.000000,-4.000000,-2.000000,-5.000000,-10.437500,4.500000,-1.125000,-0.025879,0.774414,0.567871
Sun May 14 14:43:43 2017,-7.000000,-25.000000,-20.000000,-6.000000,-3.000000,-1.000000,-3.000000,-4.000000,-10.437500,4.500000,-1.125000,-0.025879,0.774414,0.567871
Sun May 14 14:43:43 2017,11.000000,3.000000,2.000000,-4.000000,-2.000000,-1.000000,4.000000,1.000000,-5.062500,4.687500,-1.250000,-0.028320,0.771484,0.553223
Sun May 14 14:43:43 2017,11.000000,3.000000,2.000000,-4.000000,-2.000000,-1.000000,4.000000,1.000000,-5.062500,4.687500,-1.250000,-0.028320,0.771484,0.553223
Sun May 14 14:43:43 2017,16.000000,8.000000,1.000000,-2.000000,1.000000,4.000000,5.000000,-5.000000,-5.062500,4.687500,-1.250000,-0.028320,0.771484,0.553223
Sun May 14 14:43:43 2017,7.000000,0.000000,2.000000,1.000000,1.000000,-5.000000,5.000000,-1.000000,12.750000,8.437500,0.250000,-0.046387,0.724609,0.561035
Sun May 14 14:43:43 2017,7.000000,0.000000,2.000000,1.000000,1.000000,-5.000000,5.000000,-1.000000,12.750000,8.437500,0.250000,-0.046387,0.724609,0.561035
Sun May 14 14:43:43 2017,7.000000,0.000000,2.000000,1.000000,1.000000,-5.000000,5.000000,-1.000000,12.750000,8.437500,0.250000,-0.046387,0.724609,0.561035
Sun May 14 14:43:43 2017,-7.000000,5.000000,4.000000,7.000000,27.000000,35.000000,11.000000,4.000000,14.875000,9.437500,-0.187500,-0.028809,0.807617,0.563965
Sun May 14 14:43:43 2017,-7.000000,5.000000,4.000000,7.000000,27.000000,35.000000,11.000000,4.000000,14.875000,9.437500,-0.187500,-0.028809,0.807617,0.563965
Sun May 14 14:43:43 2017,-7.000000,5.000000,4.000000,7.000000,27.000000,35.000000,11.000000,4.000000,14.875000,9.437500,-0.187500,-0.028809,0.807617,0.563965
Sun May 14 14:43:43 2017,8.000000,-11.000000,-3.000000,1.000000,3.000000,-1.000000,-13.000000,-7.000000,14.875000,9.437500,-0.187500,-0.028809,0.807617,0.563965
Sun May 14 14:43:43 2017,-6.000000,-4.000000,-2.000000,-8.000000,-23.000000,-27.000000,-8.000000,-3.000000,16.562500,6.812500,-3.312500,-0.051758,0.856934,0.558594
Sun May 14 14:43:43 2017,-6.000000,-4.000000,-2.000000,-8.000000,-23.000000,-27.000000,-8.000000,-3.000000,16.562500,6.812500,-3.312500,-0.051758,0.856934,0.558594
Sun May 14 14:43:43 2017,-1.000000,-5.000000,10.000000,6.000000,10.000000,9.000000,5.000000,5.000000,16.562500,6.812500,-3.312500,-0.051758,0.856934,0.558594
Sun May 14 14:43:43 2017,38.000000,31.000000,11.000000,-4.000000,-1.000000,-4.000000,-1.000000,4.000000,8.750000,3.812500,-1.625000,-0.058105,0.834473,0.550293
Sun May 14 14:43:43 2017,38.000000,31.000000,11.000000,-4.000000,-1.000000,-4.000000,-1.000000,4.000000,8.750000,3.812500,-1.625000,-0.058105,0.834473,0.550293
Sun May 14 14:43:43 2017,38.000000,31.000000,11.000000,-4.000000,-1.000000,-4.000000,-1.000000,4.000000,8.750000,3.812500,-1.625000,-0.058105,0.834473,0.550293
Sun May 14 14:43:43 2017,-2.000000,3.000000,13.000000,-1.000000,-1.000000,-1.000000,-1.000000,-5.000000,8.875000,1.875000,-0.687500,-0.054688,0.824219,0.562500
Sun May 14 14:43:43 2017,-2.000000,3.000000,13.000000,-1.000000,-1.000000,-1.000000,-1.000000,-5.000000,8.875000,1.875000,-0.687500,-0.054688,0.824219,0.562500
Sun May 14 14:43:43 2017,-2.000000,3.000000,13.000000,-1.000000,-1.000000,-1.000000,-1.000000,-5.000000,8.875000,1.875000,-0.687500,-0.054688,0.824219,0.562500
Sun May 14 14:43:43 2017,6.000000,10.000000,10.000000,-1.000000,-2.000000,-2.000000,-5.000000,-4.000000,8.875000,1.875000,-0.687500,-0.054688,0.824219,0.562500
Sun May 14 14:43:43 2017,-9.000000,-3.000000,-10.000000,-1.000000,-3.000000,-2.000000,-3.000000,-2.000000,9.437500,-1.500000,0.625000,-0.070801,0.810059,0.553711
Sun May 14 14:43:43 2017,-9.000000,-3.000000,-10.000000,-1.000000,-3.000000,-2.000000,-3.000000,-2.000000,9.437500,-1.500000,0.625000,-0.070801,0.810059,0.553711
Sun May 14 14:43:43 2017,-20.000000,-14.000000,-1.000000,-4.000000,0.000000,2.000000,-3.000000,-5.000000,9.437500,-1.500000,0.625000,-0.070801,0.810059,0.553711
Sun May 14 14:43:43 2017,13.000000,38.000000,14.000000,5.000000,7.000000,11.000000,4.000000,6.000000,11.312500,-2.625000,-0.312500,-0.030762,0.823242,0.542480
Sun May 14 14:43:43 2017,-3.000000,8.000000,1.000000,2.000000,-6.000000,-10.000000,-11.000000,-3.000000,11.312500,-2.625000,-0.312500,-0.030762,0.823242,0.542480
Sun May 14 14:43:43 2017,-3.000000,8.000000,1.000000,2.000000,-6.000000,-10.000000,-11.000000,-3.000000,11.312500,-2.625000,-0.312500,-0.030762,0.823242,0.542480
Sun May 14 14:43:43 2017,-12.000000,-16.000000,2.000000,-5.000000,-9.000000,-1.000000,1.000000,-5.000000,6.437500,-3.562500,-2.437500,-0.041504,0.824219,0.538574
Sun May 14 14:43:43 2017,-12.000000,-16.000000,2.000000,-5.000000,-9.000000,-1.000000,1.000000,-5.000000,6.437500,-3.562500,-2.437500,-0.041504,0.824219,0.538574
Sun May 14 14:43:43 2017,-12.000000,-16.000000,2.000000,-5.000000,-9.000000,-1.000000,1.000000,-5.000000,6.437500,-3.562500,-2.437500,-0.041504,0.824219,0.538574
Sun May 14 14:43:43 2017,-12.000000,-16.000000,2.000000,-5.000000,-9.000000,-1.000000,1.000000,-5.000000,6.437500,-3.562500,-2.437500,-0.041504,0.824219,0.538574
Sun May 14 14:43:43 2017,-12.000000,-10.000000,-11.000000,-3.000000,0.000000,-4.000000,-4.000000,-2.000000,6.187500,-4.062500,-2.000000,-0.039062,0.837402,0.537598
Sun May 14 14:43:43 2017,-12.000000,-10.000000,-11.000000,-3.000000,0.000000,-4.000000,-4.000000,-2.000000,6.187500,-4.062500,-2.000000,-0.039062,0.837402,0.537598
Sun May 14 14:43:43 2017,7.000000,-10.000000,-12.000000,-3.000000,-3.000000,-4.000000,-4.000000,2.000000,6.187500,-4.062500,-2.000000,-0.039062,0.837402,0.537598
Sun May 14 14:43:43 2017,4.000000,-11.000000,-16.000000,0.000000,9.000000,4.000000,5.000000,-1.000000,2.437500,-3.000000,-1.375000,-0.049316,0.868652,0.519531
Sun May 14 14:43:43 2017,4.000000,-11.000000,-16.000000,0.000000,9.000000,4.000000,5.000000,-1.000000,2.437500,-3.000000,-1.375000,-0.049316,0.868652,0.519531
Sun May 14 14:43:43 2017,4.000000,-11.000000,-16.000000,0.000000,9.000000,4.000000,5.000000,-1.000000,2.437500,-3.000000,-1.375000,-0.049316,0.868652,0.519531
Sun May 14 14:43:43 2017,8.000000,-2.000000,-1.000000,-3.000000,-4.000000,-3.000000,-1.000000,2.000000,-3.875000,-3.250000,0.000000,-0.055664,0.835449,0.549316
Sun May 14 14:43:43 2017,8.000000,-2.000000,-1.000000,-3.000000,-4.000000,-3.000000,-1.000000,2.000000,-3.875000,-3.250000,0.000000,-0.055664,0.835449,0.549316
Sun May 14 14:43:43 2017,8.000000,-2.000000,-1.000000,-3.000000,-4.000000,-3.000000,-1.000000,2.000000,-3.875000,-3.250000,0.000000,-0.055664,0.835449,0.549316
Sun May 14 14:43:43 2017,8.000000,-2.000000,-1.000000,-3.000000,-4.000000,-3.000000,-1.000000,2.000000,-3.875000,-3.250000,0.000000,-0.055664,0.835449,0.549316
Sun May 14 14:43:43 2017,-8.000000,7.000000,13.000000,4.000000,-1.000000,-5.000000,-2.000000,-1.000000,-5.062500,-4.437500,-2.500000,-0.037109,0.814453,0.540039
Sun May 14 14:43:43 2017,-8.000000,7.000000,13.000000,4.000000,-1.000000,-5.000000,-2.000000,-1.000000,-5.062500,-4.437500,-2.500000,-0.037109,0.814453,0.540039
Sun May 14 14:43:43 2017,13.000000,-9.000000,-8.000000,-1.000000,6.000000,12.000000,6.000000,6.000000,-5.062500,-4.437500,-2.500000,-0.037109,0.814453,0.540039
Sun May 14 14:43:43 2017,13.000000,-9.000000,-8.000000,-1.000000,6.000000,12.000000,6.000000,6.000000,-5.062500,-4.437500,-2.500000,-0.037109,0.814453,0.540039
Sun May 14 14:43:43 2017,4.000000,-18.000000,-1.000000,-5.000000,-11.000000,-6.000000,-5.000000,-4.000000,-2.625000,-2.375000,-2.125000,-0.019531,0.805664,0.536621
Sun May 14 14:43:43 2017,4.000000,-18.000000,-1.000000,-5.000000,-11.000000,-6.000000,-5.000000,-4.000000,-2.625000,-2.375000,-2.125000,-0.019531,0.805664,0.536621
Sun May 14 14:43:43 2017,-1.000000,11.000000,-4.000000,-5.000000,-5.000000,-1.000000,3.000000,1.000000,5.000000,0.062500,-1.750000,-0.026367,0.808105,0.534180
Sun May 14 14:43:43 2017,-5.000000,17.000000,5.000000,1.000000,12.000000,-4.000000,-5.000000,0.000000,5.000000,0.062500,-1.750000,-0.026367,0.808105,0.534180
Sun May 14 14:43:43 2017,-5.000000,17.000000,5.000000,1.000000,12.000000,-4.000000,-5.000000,0.000000,5.000000,0.062500,-1.750000,-0.026367,0.808105,0.534180
Sun May 14 14:43:43 2017,-5.000000,17.000000,5.000000,1.000000,12.000000,-4.000000,-5.000000,0.000000,5.000000,0.062500,-1.750000,-0.026367,0.808105,0.534180
Sun May 14 14:43:43 2017,-5.000000,17.000000,5.000000,1.000000,12.000000,-4.000000,-5.000000,0.000000,5.000000,0.062500,-1.750000,-0.026367,0.808105,0.534180
Sun May 14 14:43:43 2017,-9.000000,-5.000000,-5.000000,-6.000000,3.000000,6.000000,1.000000,-7.000000,5.000000,0.062500,-1.750000,-0.026367,0.808105,0.534180
Sun May 14 14:43:43 2017,-30.000000,28.000000,11.000000,2.000000,-6.000000,-2.000000,1.000000,-3.000000,5.937500,2.250000,-3.437500,-0.055176,0.817871,0.513184
Sun May 14 14:43:43 2017,-33.000000,6.000000,-22.000000,-6.000000,-2.000000,-7.000000,-9.000000,-8.000000,5.937500,2.250000,-3.437500,-0.055176,0.817871,0.513184
Sun May 14 14:43:43 2017,10.000000,58.000000,10.000000,5.000000,0.000000,1.000000,1.000000,2.000000,5.812500,4.000000,-3.750000,-0.040039,0.819336,0.521973
Sun May 14 14:43:43 2017,10.000000,58.000000,10.000000,5.000000,0.000000,1.000000,1.000000,2.000000,5.812500,4.000000,-3.750000,-0.040039,0.819336,0.521973
Sun May 14 14:43:43 2017,10.000000,58.000000,10.000000,5.000000,0.000000,1.000000,1.000000,2.000000,5.812500,4.000000,-3.750000,-0.040039,0.819336,0.521973
Sun May 14 14:43:43 2017,1.000000,-18.000000,-20.000000,-5.000000,-1.000000,4.000000,4.000000,1.000000,10.000000,3.125000,-6.500000,-0.038086,0.836426,0.511230
Sun May 14 14:43:43 2017,1.000000,-18.000000,-20.000000,-5.000000,-1.000000,4.000000,4.000000,1.000000,10.000000,3.125000,-6.500000,-0.038086,0.836426,0.511230
Sun May 14 14:43:43 2017,1.000000,-18.000000,-20.000000,-5.000000,-1.000000,4.000000,4.000000,1.000000,10.000000,3.125000,-6.500000,-0.038086,0.836426,0.511230
Sun May 14 14:43:43 2017,15.000000,36.000000,7.000000,1.000000,0.000000,-2.000000,-1.000000,2.000000,10.000000,3.125000,-6.500000,-0.038086,0.836426,0.511230
Sun May 14 14:43:43 2017,3.000000,-23.000000,-14.000000,-4.000000,-2.000000,0.000000,1.000000,2.000000,3.437500,3.062500,-1.250000,-0.071777,0.849121,0.508301
Sun May 14 14:43:43 2017,3.000000,-23.000000,-14.000000,-4.000000,-2.000000,0.000000,1.000000,2.000000,3.437500,3.062500,-1.250000,-0.071777,0.849121,0.508301
Sun May 14 14:43:43 2017,3.000000,-23.000000,-14.000000,-4.000000,-2.000000,0.000000,1.000000,2.000000,3.437500,3.062500,-1.250000,-0.071777,0.849121,0.508301
Sun May 14 14:43:43 2017,14.000000,-18.000000,-6.000000,-3.000000,-7.000000,-6.000000,-1.000000,0.000000,-0.625000,1.687500,1.312500,-0.060059,0.860352,0.521484
Sun May 14 14:43:43 2017,14.000000,-18.000000,-6.000000,-3.000000,-7.000000,-6.000000,-1.000000,0.000000,-0.625000,1.687500,1.312500,-0.060059,0.860352,0.521484
Sun May 14 14:43:43 2017,14.000000,-18.000000,-6.000000,-3.000000,-7.000000,-6.000000,-1.000000,0.000000,-0.625000,1.687500,1.312500,-0.060059,0.860352,0.521484
Sun May 14 14:43:43 2017,3.000000,-4.000000,-1.000000,-9.000000,-18.000000,-31.000000,-15.000000,-8.000000,-6.250000,1.750000,1.375000,-0.083984,0.831055,0.529297
Sun May 14 14:43:43 2017,3.000000,-4.000000,-1.000000,-9.000000,-18.000000,-31.000000,-15.000000,-8.000000,-6.250000,1.750000,1.375000,-0.083984,0.831055,0.529297
Sun May 14 14:43:43 2017,3.000000,-4.000000,-1.000000,-9.000000,-18.000000,-31.000000,-15.000000,-8.000000,-6.250000,1.750000,1.375000,-0.083984,0.831055,0.529297
Sun May 14 14:43:43 2017,9.000000,29.000000,6.000000,8.000000,25.000000,47.000000,20.000000,13.000000,-6.250000,1.750000,1.375000,-0.083984,0.831055,0.529297
Sun May 14 14:43:43 2017,9.000000,-13.000000,-3.000000,10.000000,-2.000000,-3.000000,3.000000,3.000000,-4.812500,0.750000,2.125000,-0.052246,0.825195,0.536621
Sun May 14 14:43:43 2017,9.000000,-13.000000,-3.000000,10.000000,-2.000000,-3.000000,3.000000,3.000000,-4.812500,0.750000,2.125000,-0.052246,0.825195,0.536621
Sun May 14 14:43:43 2017,9.000000,-13.000000,-3.000000,10.000000,-2.000000,-3.000000,3.000000,3.000000,-4.812500,0.750000,2.125000,-0.052246,0.825195,0.536621
Sun May 14 14:43:43 2017,-9.000000,1.000000,7.000000,-1.000000,1.000000,0.000000,-6.000000,-6.000000,-1.812500,1.625000,3.062500,-0.036621,0.830566,0.569336
Sun May 14 14:43:43 2017,-9.000000,1.000000,7.000000,-1.000000,1.000000,0.000000,-6.000000,-6.000000,-1.812500,1.625000,3.062500,-0.036621,0.830566,0.569336
Sun May 14 14:43:43 2017,-9.000000,1.000000,7.000000,-1.000000,1.000000,0.000000,-6.000000,-6.000000,-1.812500,1.625000,3.062500,-0.036621,0.830566,0.569336
Sun May 14 14:43:43 2017,23.000000,-5.000000,-8.000000,1.000000,9.000000,13.000000,4.000000,1.000000,-0.875000,1.312500,3.937500,-0.039062,0.811523,0.544434
Sun May 14 14:43:43 2017,23.000000,-5.000000,-8.000000,1.000000,9.000000,13.000000,4.000000,1.000000,-0.875000,1.312500,3.937500,-0.039062,0.811523,0.544434
Sun May 14 14:43:43 2017,23.000000,-5.000000,-8.000000,1.000000,9.000000,13.000000,4.000000,1.000000,-0.875000,1.312500,3.937500,-0.039062,0.811523,0.544434
Sun May 14 14:43:43 2017,23.000000,-5.000000,-8.000000,1.000000,9.000000,13.000000,4.000000,1.000000,-0.875000,1.312500,3.937500,-0.039062,0.811523,0.544434
Sun May 14 14:43:43 2017,-2.000000,-4.000000,-5.000000,-8.000000,-4.000000,5.000000,-1.000000,-2.000000,3.000000,0.250000,2.812500,-0.051270,0.815430,0.539062
Sun May 14 14:43:43 2017,-2.000000,-4.000000,-5.000000,-8.000000,-4.000000,5.000000,-1.000000,-2.000000,3.000000,0.250000,2.812500,-0.051270,0.815430,0.539062
Sun May 14 14:43:43 2017,-2.000000,-4.000000,-5.000000,-8.000000,-4.000000,5.000000,-1.000000,-2.000000,3.000000,0.250000,2.812500,-0.051270,0.815430,0.539062
Sun May 14 14:43:43 2017,-2.000000,-4.000000,-5.000000,-8.000000,-4.000000,5.000000,-1.000000,-2.000000,3.000000,0.250000,2.812500,-0.051270,0.815430,0.539062
Sun May 14 14:43:43 2017,-1.000000,11.000000,10.000000,9.000000,25.000000,29.000000,7.000000,2.000000,2.062500,1.125000,2.562500,-0.031738,0.814453,0.528809
Sun May 14 14:43:43 2017,-1.000000,11.000000,10.000000,9.000000,25.000000,29.000000,7.000000,2.000000,2.062500,1.125000,2.562500,-0.031738,0.814453,0.528809
Sun May 14 14:43:43 2017,-1.000000,11.000000,10.000000,9.000000,25.000000,29.000000,7.000000,2.000000,2.062500,1.125000,2.562500,-0.031738,0.814453,0.528809
Sun May 14 14:43:43 2017,-18.000000,-11.000000,-6.000000,-1.000000,3.000000,-1.000000,2.000000,-1.000000,1.562500,-1.187500,0.187500,-0.046387,0.815430,0.533203
Sun May 14 14:43:43 2017,-18.000000,-11.000000,-6.000000,-1.000000,3.000000,-1.000000,2.000000,-1.000000,1.562500,-1.187500,0.187500,-0.046387,0.815430,0.533203
Sun May 14 14:43:43 2017,-18.000000,-11.000000,-6.000000,-1.000000,3.000000,-1.000000,2.000000,-1.000000,1.562500,-1.187500,0.187500,-0.046387,0.815430,0.533203
Sun May 14 14:43:43 2017,29.000000,5.000000,-1.000000,-4.000000,-5.000000,-2.000000,6.000000,4.000000,1.000000,0.312500,0.250000,-0.028320,0.783691,0.553223
Sun May 14 14:43:43 2017,29.000000,5.000000,-1.000000,-4.000000,-5.000000,-2.000000,6.000000,4.000000,1.000000,0.312500,0.250000,-0.028320,0.783691,0.553223
Sun May 14 14:43:43 2017,29.000000,5.000000,-1.000000,-4.000000,-5.000000,-2.000000,6.000000,4.000000,1.000000,0.312500,0.250000,-0.028320,0.783691,0.553223
Sun May 14 14:43:43 2017,29.000000,5.000000,-1.000000,-4.000000,-5.000000,-2.000000,6.000000,4.000000,1.000000,0.312500,0.250000,-0.028320,0.783691,0.553223
Sun May 14 14:43:43 2017,-21.000000,0.000000,17.000000,5.000000,9.000000,8.000000,-3.000000,-4.000000,7.687500,0.375000,-1.812500,-0.047852,0.814941,0.530762
Sun May 14 14:43:43 2017,-21.000000,0.000000,17.000000,5.000000,9.000000,8.000000,-3.000000,-4.000000,7.687500,0.375000,-1.812500,-0.047852,0.814941,0.530762
Sun May 14 14:43:43 2017,19.000000,0.000000,-2.000000,-2.000000,-7.000000,-6.000000,-1.000000,0.000000,7.687500,0.375000,-1.812500,-0.047852,0.814941,0.530762
Sun May 14 14:43:43 2017,19.000000,0.000000,-2.000000,-2.000000,-7.000000,-6.000000,-1.000000,0.000000,7.687500,0.375000,-1.812500,-0.047852,0.814941,0.530762
Sun May 14 14:43:43 2017,-13.000000,14.000000,-18.000000,-13.000000,-20.000000,-23.000000,-1.000000,-6.000000,5.437500,-0.250000,-3.375000,-0.074219,0.823730,0.511719
Sun May 14 14:43:43 2017,-13.000000,14.000000,-18.000000,-13.000000,-20.000000,-23.000000,-1.000000,-6.000000,5.437500,-0.250000,-3.375000,-0.074219,0.823730,0.511719
Sun May 14 14:43:43 2017,1.000000,9.000000,12.000000,7.000000,12.000000,13.000000,7.000000,6.000000,5.437500,-0.250000,-3.375000,-0.074219,0.823730,0.511719
Sun May 14 14:43:44 2017,-27.000000,11.000000,-4.000000,-5.000000,-18.000000,-15.000000,-1.000000,-3.000000,4.625000,-1.062500,-4.687500,-0.053223,0.808105,0.531738
Sun May 14 14:43:44 2017,-27.000000,11.000000,-4.000000,-5.000000,-18.000000,-15.000000,-1.000000,-3.000000,4.625000,-1.062500,-4.687500,-0.053223,0.808105,0.531738
Sun May 14 14:43:44 2017,-27.000000,11.000000,-4.000000,-5.000000,-18.000000,-15.000000,-1.000000,-3.000000,4.625000,-1.062500,-4.687500,-0.053223,0.808105,0.531738
Sun May 14 14:43:44 2017,1.000000,-10.000000,-11.000000,-6.000000,-8.000000,-15.000000,-3.000000,-5.000000,4.625000,-1.062500,-4.687500,-0.053223,0.808105,0.531738
Sun May 14 14:43:44 2017,4.000000,3.000000,13.000000,5.000000,1.000000,4.000000,2.000000,-1.000000,9.875000,0.062500,-3.187500,-0.045410,0.825195,0.540039
Sun May 14 14:43:44 2017,4.000000,3.000000,13.000000,5.000000,1.000000,4.000000,2.000000,-1.000000,9.875000,0.062500,-3.187500,-0.045410,0.825195,0.540039
Sun May 14 14:43:44 2017,-4.000000,-21.000000,-14.000000,-8.000000,-7.000000,-5.000000,-2.000000,-2.000000,9.937500,-0.562500,-2.625000,-0.055664,0.840820,0.513672
Sun May 14 14:43:44 2017,4.000000,2.000000,2.000000,3.000000,7.000000,0.000000,-2.000000,5.000000,9.937500,-0.562500,-2.625000,-0.055664,0.840820,0.513672
Sun May 14 14:43:44 2017,4.000000,2.000000,2.000000,3.000000,7.000000,0.000000,-2.000000,5.000000,9.937500,-0.562500,-2.625000,-0.055664,0.840820,0.513672
Sun May 14 14:43:44 2017,4.000000,2.000000,2.000000,3.000000,7.000000,0.000000,-2.000000,5.000000,9.937500,-0.562500,-2.625000,-0.055664,0.840820,0.513672
Sun May 14 14:43:44 2017,4.000000,2.000000,2.000000,3.000000,7.000000,0.000000,-2.000000,5.000000,9.937500,-0.562500,-2.625000,-0.055664,0.840820,0.513672
Sun May 14 14:43:44 2017,-15.000000,-36.000000,9.000000,3.000000,-2.000000,-3.000000,-13.000000,-8.000000,5.812500,-0.750000,-1.812500,-0.049805,0.843750,0.506348
Sun May 14 14:43:44 2017,-15.000000,-36.000000,9.000000,3.000000,-2.000000,-3.000000,-13.000000,-8.000000,5.812500,-0.750000,-1.812500,-0.049805,0.843750,0.506348
Sun May 14 14:43:44 2017,-15.000000,-36.000000,9.000000,3.000000,-2.000000,-3.000000,-13.000000,-8.000000,5.812500,-0.750000,-1.812500,-0.049805,0.843750,0.506348
Sun May 14 14:43:44 2017,-2.000000,21.000000,7.000000,6.000000,0.000000,-6.000000,-2.000000,-2.000000,2.312500,-0.750000,-0.687500,-0.042480,0.860352,0.508789
Sun May 14 14:43:44 2017,-2.000000,21.000000,7.000000,6.000000,0.000000,-6.000000,-2.000000,-2.000000,2.312500,-0.750000,-0.687500,-0.042480,0.860352,0.508789
Sun May 14 14:43:44 2017,-8.000000,13.000000,1.000000,0.000000,6.000000,11.000000,8.000000,-2.000000,-2.937500,-1.562500,-0.750000,-0.059082,0.865723,0.510742
Sun May 14 14:43:44 2017,9.000000,-1.000000,-9.000000,-3.000000,4.000000,2.000000,0.000000,4.000000,-2.937500,-1.562500,-0.750000,-0.059082,0.865723,0.510742
Sun May 14 14:43:44 2017,9.000000,-1.000000,-9.000000,-3.000000,4.000000,2.000000,0.000000,4.000000,-2.937500,-1.562500,-0.750000,-0.059082,0.865723,0.510742
Sun May 14 14:43:44 2017,9.000000,-1.000000,-9.000000,-3.000000,4.000000,2.000000,0.000000,4.000000,-2.937500,-1.562500,-0.750000,-0.059082,0.865723,0.510742
Sun May 14 14:43:44 2017,5.000000,-28.000000,-10.000000,-2.000000,-11.000000,-18.000000,-3.000000,2.000000,-4.875000,-1.812500,1.250000,-0.059082,0.860352,0.502441
Sun May 14 14:43:44 2017,5.000000,-28.000000,-10.000000,-2.000000,-11.000000,-18.000000,-3.000000,2.000000,-4.875000,-1.812500,1.250000,-0.059082,0.860352,0.502441
Sun May 14 14:43:44 2017,5.000000,-28.000000,-10.000000,-2.000000,-11.000000,-18.000000,-3.000000,2.000000,-4.875000,-1.812500,1.250000,-0.059082,0.860352,0.502441
Sun May 14 14:43:44 2017,5.000000,10.000000,-3.000000,1.000000,0.000000,12.000000,-10.000000,-1.000000,-4.875000,-1.812500,1.250000,-0.059082,0.860352,0.502441
Sun May 14 14:43:44 2017,-1.000000,-10.000000,-5.000000,-5.000000,-4.000000,-6.000000,-5.000000,-4.000000,-10.437500,-2.500000,0.687500,-0.051270,0.843262,0.520508
Sun May 14 14:43:44 2017,-1.000000,-10.000000,-5.000000,-5.000000,-4.000000,-6.000000,-5.000000,-4.000000,-10.437500,-2.500000,0.687500,-0.051270,0.843262,0.520508
Sun May 14 14:43:44 2017,6.000000,6.000000,2.000000,-4.000000,-6.000000,-8.000000,-5.000000,-4.000000,-9.375000,-2.125000,1.437500,-0.043945,0.814941,0.525391
Sun May 14 14:43:44 2017,-3.000000,-35.000000,-17.000000,-9.000000,-5.000000,-1.000000,-1.000000,-1.000000,-9.375000,-2.125000,1.437500,-0.043945,0.814941,0.525391
Sun May 14 14:43:44 2017,-3.000000,-35.000000,-17.000000,-9.000000,-5.000000,-1.000000,-1.000000,-1.000000,-9.375000,-2.125000,1.437500,-0.043945,0.814941,0.525391
Sun May 14 14:43:44 2017,-3.000000,-35.000000,-17.000000,-9.000000,-5.000000,-1.000000,-1.000000,-1.000000,-9.375000,-2.125000,1.437500,-0.043945,0.814941,0.525391
Sun May 14 14:43:44 2017,-3.000000,3.000000,8.000000,4.000000,3.000000,5.000000,-3.000000,-7.000000,-10.312500,-2.062500,-0.437500,-0.044922,0.805664,0.541504
Sun May 14 14:43:44 2017,-3.000000,3.000000,8.000000,4.000000,3.000000,5.000000,-3.000000,-7.000000,-10.312500,-2.062500,-0.437500,-0.044922,0.805664,0.541504
Sun May 14 14:43:44 2017,-3.000000,3.000000,8.000000,4.000000,3.000000,5.000000,-3.000000,-7.000000,-10.312500,-2.062500,-0.437500,-0.044922,0.805664,0.541504
Sun May 14 14:43:44 2017,-3.000000,3.000000,8.000000,4.000000,3.000000,5.000000,-3.000000,-7.000000,-10.312500,-2.062500,-0.437500,-0.044922,0.805664,0.541504
Sun May 14 14:43:44 2017,4.000000,3.000000,-1.000000,-9.000000,1.000000,6.000000,3.000000,5.000000,-4.187500,-0.125000,0.875000,-0.051270,0.771484,0.540527
Sun May 14 14:43:44 2017,4.000000,3.000000,-1.000000,-9.000000,1.000000,6.000000,3.000000,5.000000,-4.187500,-0.125000,0.875000,-0.051270,0.771484,0.540527
Sun May 14 14:43:44 2017,-11.000000,5.000000,-5.000000,1.000000,1.000000,-2.000000,-2.000000,-3.000000,2.500000,1.000000,0.125000,-0.045410,0.805176,0.519531
Sun May 14 14:43:44 2017,5.000000,-6.000000,4.000000,4.000000,3.000000,9.000000,7.000000,7.000000,2.500000,1.000000,0.125000,-0.045410,0.805176,0.519531
Sun May 14 14:43:44 2017,5.000000,-6.000000,4.000000,4.000000,3.000000,9.000000,7.000000,7.000000,2.500000,1.000000,0.125000,-0.045410,0.805176,0.519531
Sun May 14 14:43:44 2017,5.000000,-6.000000,4.000000,4.000000,3.000000,9.000000,7.000000,7.000000,2.500000,1.000000,0.125000,-0.045410,0.805176,0.519531
Sun May 14 14:43:44 2017,-1.000000,4.000000,-2.000000,0.000000,-3.000000,3.000000,1.000000,-1.000000,2.437500,0.937500,0.250000,-0.058105,0.826172,0.531738
Sun May 14 14:43:44 2017,-1.000000,4.000000,-2.000000,0.000000,-3.000000,3.000000,1.000000,-1.000000,2.437500,0.937500,0.250000,-0.058105,0.826172,0.531738
Sun May 14 14:43:44 2017,-1.000000,4.000000,-2.000000,0.000000,-3.000000,3.000000,1.000000,-1.000000,2.437500,0.937500,0.250000,-0.058105,0.826172,0.531738
Sun May 14 14:43:44 2017,-1.000000,4.000000,-2.000000,0.000000,-3.000000,3.000000,1.000000,-1.000000,2.437500,0.937500,0.250000,-0.058105,0.826172,0.531738
Sun May 14 14:43:44 2017,-5.000000,10.000000,6.000000,1.000000,2.000000,18.000000,4.000000,6.000000,1.062500,0.500000,-1.062500,-0.040527,0.812500,0.536621
Sun May 14 14:43:44 2017,-5.000000,10.000000,6.000000,1.000000,2.000000,18.000000,4.000000,6.000000,1.062500,0.500000,-1.062500,-0.040527,0.812500,0.536621
Sun May 14 14:43:44 2017,20.000000,10.000000,0.000000,-4.000000,-12.000000,-10.000000,-3.000000,-10.000000,1.062500,0.500000,-1.062500,-0.040527,0.812500,0.536621
Sun May 14 14:43:44 2017,20.000000,10.000000,0.000000,-4.000000,-12.000000,-10.000000,-3.000000,-10.000000,1.062500,0.500000,-1.062500,-0.040527,0.812500,0.536621
Sun May 14 14:43:44 2017,-3.000000,5.000000,-6.000000,1.000000,1.000000,-1.000000,6.000000,-1.000000,-1.125000,-0.875000,-2.687500,-0.057129,0.883789,0.521484
Sun May 14 14:43:44 2017,-3.000000,5.000000,-6.000000,1.000000,1.000000,-1.000000,6.000000,-1.000000,-1.125000,-0.875000,-2.687500,-0.057129,0.883789,0.521484
Sun May 14 14:43:44 2017,-3.000000,5.000000,-6.000000,1.000000,1.000000,-1.000000,6.000000,-1.000000,-1.125000,-0.875000,-2.687500,-0.057129,0.883789,0.521484
Sun May 14 14:43:44 2017,10.000000,-7.000000,-6.000000,2.000000,-6.000000,-10.000000,-3.000000,-1.000000,-2.500000,-0.125000,-2.375000,-0.047852,0.833008,0.544434
Sun May 14 14:43:44 2017,10.000000,-7.000000,-6.000000,2.000000,-6.000000,-10.000000,-3.000000,-1.000000,-2.500000,-0.125000,-2.375000,-0.047852,0.833008,0.544434
Sun May 14 14:43:44 2017,10.000000,-7.000000,-6.000000,2.000000,-6.000000,-10.000000,-3.000000,-1.000000,-2.500000,-0.125000,-2.375000,-0.047852,0.833008,0.544434
Sun May 14 14:43:44 2017,-11.000000,2.000000,-4.000000,-3.000000,-10.000000,-11.000000,3.000000,3.000000,-2.500000,-0.125000,-2.375000,-0.047852,0.833008,0.544434
Sun May 14 14:43:44 2017,7.000000,19.000000,-2.000000,1.000000,3.000000,4.000000,-2.000000,5.000000,-1.937500,0.500000,-0.812500,-0.048828,0.813965,0.550293
Sun May 14 14:43:44 2017,7.000000,19.000000,-2.000000,1.000000,3.000000,4.000000,-2.000000,5.000000,-1.937500,0.500000,-0.812500,-0.048828,0.813965,0.550293
Sun May 14 14:43:44 2017,1.000000,-9.000000,0.000000,-1.000000,-1.000000,-1.000000,2.000000,1.000000,-1.937500,0.500000,-0.812500,-0.048828,0.813965,0.550293
Sun May 14 14:43:44 2017,-9.000000,-15.000000,-7.000000,-6.000000,-21.000000,-24.000000,-1.000000,-5.000000,-0.750000,-0.687500,-0.625000,-0.072754,0.828125,0.529785
Sun May 14 14:43:44 2017,-9.000000,-15.000000,-7.000000,-6.000000,-21.000000,-24.000000,-1.000000,-5.000000,-0.750000,-0.687500,-0.625000,-0.072754,0.828125,0.529785
Sun May 14 14:43:44 2017,-9.000000,-15.000000,-7.000000,-6.000000,-21.000000,-24.000000,-1.000000,-5.000000,-0.750000,-0.687500,-0.625000,-0.072754,0.828125,0.529785
Sun May 14 14:43:44 2017,-5.000000,-25.000000,-4.000000,1.000000,1.000000,-2.000000,-4.000000,-4.000000,-0.187500,-1.312500,-1.562500,-0.066895,0.812012,0.534668
Sun May 14 14:43:44 2017,-5.000000,-25.000000,-4.000000,1.000000,1.000000,-2.000000,-4.000000,-4.000000,-0.187500,-1.312500,-1.562500,-0.066895,0.812012,0.534668
Sun May 14 14:43:44 2017,-5.000000,-25.000000,-4.000000,1.000000,1.000000,-2.000000,-4.000000,-4.000000,-0.187500,-1.312500,-1.562500,-0.066895,0.812012,0.534668
Sun May 14 14:43:44 2017,-5.000000,-25.000000,-4.000000,1.000000,1.000000,-2.000000,-4.000000,-4.000000,-0.187500,-1.312500,-1.562500,-0.066895,0.812012,0.534668
Sun May 14 14:43:44 2017,1.000000,9.000000,0.000000,0.000000,4.000000,4.000000,-4.000000,0.000000,-0.312500,-0.437500,0.437500,-0.041504,0.812500,0.549805
Sun May 14 14:43:44 2017,1.000000,9.000000,0.000000,0.000000,4.000000,4.000000,-4.000000,0.000000,-0.312500,-0.437500,0.437500,-0.041504,0.812500,0.549805
Sun May 14 14:43:44 2017,1.000000,38.000000,12.000000,2.000000,7.000000,10.000000,8.000000,2.000000,-0.312500,-0.437500,0.437500,-0.041504,0.812500,0.549805
Sun May 14 14:43:44 2017,1.000000,38.000000,12.000000,2.000000,7.000000,10.000000,8.000000,2.000000,-0.312500,-0.437500,0.437500,-0.041504,0.812500,0.549805
Sun May 14 14:43:44 2017,28.000000,39.000000,-2.000000,-5.000000,4.000000,6.000000,5.000000,5.000000,1.125000,-0.750000,-1.000000,-0.054199,0.849121,0.520996
Sun May 14 14:43:44 2017,28.000000,39.000000,-2.000000,-5.000000,4.000000,6.000000,5.000000,5.000000,1.125000,-0.750000,-1.000000,-0.054199,0.849121,0.520996
Sun May 14 14:43:44 2017,28.000000,39.000000,-2.000000,-5.000000,4.000000,6.000000,5.000000,5.000000,1.125000,-0.750000,-1.000000,-0.054199,0.849121,0.520996
Sun May 14 14:43:44 2017,6.000000,-68.000000,-15.000000,4.000000,1.000000,-7.000000,-5.000000,2.000000,-0.750000,-1.312500,-1.125000,-0.033691,0.809082,0.540039
Sun May 14 14:43:44 2017,6.000000,-68.000000,-15.000000,4.000000,1.000000,-7.000000,-5.000000,2.000000,-0.750000,-1.312500,-1.125000,-0.033691,0.809082,0.540039
Sun May 14 14:43:44 2017,6.000000,-68.000000,-15.000000,4.000000,1.000000,-7.000000,-5.000000,2.000000,-0.750000,-1.312500,-1.125000,-0.033691,0.809082,0.540039
Sun May 14 14:43:44 2017,6.000000,-68.000000,-15.000000,4.000000,1.000000,-7.000000,-5.000000,2.000000,-0.750000,-1.312500,-1.125000,-0.033691,0.809082,0.540039
Sun May 14 14:43:44 2017,8.000000,24.000000,3.000000,2.000000,10.000000,7.000000,-5.000000,0.000000,-0.250000,-0.312500,-0.187500,-0.044434,0.829590,0.530273
Sun May 14 14:43:44 2017,8.000000,24.000000,3.000000,2.000000,10.000000,7.000000,-5.000000,0.000000,-0.250000,-0.312500,-0.187500,-0.044434,0.829590,0.530273
Sun May 14 14:43:44 2017,-7.000000,-18.000000,-1.000000,3.000000,3.000000,4.000000,-3.000000,-2.000000,-0.250000,-0.312500,-0.187500,-0.044434,0.829590,0.530273
Sun May 14 14:43:44 2017,-7.000000,-18.000000,-1.000000,3.000000,3.000000,4.000000,-3.000000,-2.000000,-0.250000,-0.312500,-0.187500,-0.044434,0.829590,0.530273
Sun May 14 14:43:44 2017,-16.000000,-7.000000,-4.000000,-5.000000,-3.000000,-6.000000,2.000000,-3.000000,0.625000,-0.875000,-1.437500,-0.057617,0.811035,0.527344
Sun May 14 14:43:44 2017,-16.000000,-7.000000,-4.000000,-5.000000,-3.000000,-6.000000,2.000000,-3.000000,0.625000,-0.875000,-1.437500,-0.057617,0.811035,0.527344
Sun May 14 14:43:44 2017,3.000000,5.000000,13.000000,4.000000,2.000000,7.000000,4.000000,4.000000,0.625000,-0.875000,-1.437500,-0.057617,0.811035,0.527344
Sun May 14 14:43:44 2017,-3.000000,-8.000000,7.000000,-1.000000,-7.000000,-19.000000,-6.000000,-6.000000,3.312500,0.375000,-0.250000,-0.047852,0.833496,0.530273
Sun May 14 14:43:44 2017,-3.000000,-8.000000,7.000000,-1.000000,-7.000000,-19.000000,-6.000000,-6.000000,3.312500,0.375000,-0.250000,-0.047852,0.833496,0.530273
Sun May 14 14:43:44 2017,-3.000000,-8.000000,7.000000,-1.000000,-7.000000,-19.000000,-6.000000,-6.000000,3.312500,0.375000,-0.250000,-0.047852,0.833496,0.530273
Sun May 14 14:43:44 2017,-2.000000,-17.000000,-17.000000,-11.000000,-4.000000,-6.000000,-6.000000,2.000000,3.312500,0.375000,-0.250000,-0.047852,0.833496,0.530273
Sun May 14 14:43:44 2017,-9.000000,1.000000,-1.000000,-2.000000,-8.000000,1.000000,0.000000,3.000000,0.812500,0.062500,0.250000,-0.066406,0.844238,0.531738
Sun May 14 14:43:44 2017,-9.000000,1.000000,-1.000000,-2.000000,-8.000000,1.000000,0.000000,3.000000,0.812500,0.062500,0.250000,-0.066406,0.844238,0.531738
Sun May 14 14:43:44 2017,1.000000,-12.000000,-4.000000,-3.000000,-6.000000,-12.000000,-13.000000,6.000000,0.812500,0.062500,0.250000,-0.066406,0.844238,0.531738
Sun May 14 14:43:44 2017,1.000000,-12.000000,-4.000000,-3.000000,-6.000000,-12.000000,-13.000000,6.000000,-7.000000,-1.750000,0.187500,-0.067871,0.852051,0.537598
Sun May 14 14:43:44 2017,-10.000000,9.000000,2.000000,-4.000000,5.000000,0.000000,-4.000000,5.000000,-7.000000,-1.750000,0.187500,-0.067871,0.852051,0.537598
Sun May 14 14:43:44 2017,-10.000000,9.000000,2.000000,-4.000000,5.000000,0.000000,-4.000000,5.000000,-7.000000,-1.750000,0.187500,-0.067871,0.852051,0.537598
Sun May 14 14:43:44 2017,-5.000000,-7.000000,-4.000000,-2.000000,-10.000000,-10.000000,-6.000000,-4.000000,-7.000000,-1.750000,0.187500,-0.067871,0.852051,0.537598
Sun May 14 14:43:44 2017,3.000000,16.000000,22.000000,7.000000,9.000000,17.000000,4.000000,-5.000000,-2.750000,-0.750000,-0.062500,-0.047363,0.762695,0.544922
Sun May 14 14:43:44 2017,3.000000,16.000000,22.000000,7.000000,9.000000,17.000000,4.000000,-5.000000,-2.750000,-0.750000,-0.062500,-0.047363,0.762695,0.544922
Sun May 14 14:43:44 2017,3.000000,16.000000,22.000000,7.000000,9.000000,17.000000,4.000000,-5.000000,-2.750000,-0.750000,-0.062500,-0.047363,0.762695,0.544922
Sun May 14 14:43:44 2017,11.000000,-8.000000,-11.000000,-1.000000,6.000000,-5.000000,-4.000000,5.000000,-2.750000,-0.750000,-0.062500,-0.047363,0.762695,0.544922
Sun May 14 14:43:44 2017,0.000000,-11.000000,-12.000000,-7.000000,-4.000000,0.000000,-1.000000,-9.000000,3.375000,0.125000,-1.625000,-0.052734,0.788574,0.539062
Sun May 14 14:43:44 2017,0.000000,-11.000000,-12.000000,-7.000000,-4.000000,0.000000,-1.000000,-9.000000,3.375000,0.125000,-1.625000,-0.052734,0.788574,0.539062
Sun May 14 14:43:44 2017,-6.000000,-3.000000,3.000000,3.000000,8.000000,11.000000,5.000000,-3.000000,3.375000,0.125000,-1.625000,-0.052734,0.788574,0.539062
Sun May 14 14:43:44 2017,36.000000,17.000000,7.000000,3.000000,7.000000,13.000000,-11.000000,-1.000000,8.187500,1.812500,-2.125000,-0.053711,0.831543,0.531250
Sun May 14 14:43:44 2017,36.000000,17.000000,7.000000,3.000000,7.000000,13.000000,-11.000000,-1.000000,8.187500,1.812500,-2.125000,-0.053711,0.831543,0.531250
Sun May 14 14:43:44 2017,36.000000,17.000000,7.000000,3.000000,7.000000,13.000000,-11.000000,-1.000000,8.187500,1.812500,-2.125000,-0.053711,0.831543,0.531250
Sun May 14 14:43:44 2017,-20.000000,-1.000000,-2.000000,-2.000000,-2.000000,-4.000000,0.000000,1.000000,7.125000,2.000000,-1.625000,-0.066406,0.833984,0.530273
Sun May 14 14:43:44 2017,-20.000000,-1.000000,-2.000000,-2.000000,-2.000000,-4.000000,0.000000,1.000000,7.125000,2.000000,-1.625000,-0.066406,0.833984,0.530273
Sun May 14 14:43:44 2017,-20.000000,-1.000000,-2.000000,-2.000000,-2.000000,-4.000000,0.000000,1.000000,7.125000,2.000000,-1.625000,-0.066406,0.833984,0.530273
Sun May 14 14:43:44 2017,-20.000000,-1.000000,-2.000000,-2.000000,-2.000000,-4.000000,0.000000,1.000000,7.125000,2.000000,-1.625000,-0.066406,0.833984,0.530273
Sun May 14 14:43:44 2017,-16.000000,-7.000000,-17.000000,-3.000000,-2.000000,-4.000000,0.000000,-6.000000,5.375000,0.375000,0.062500,-0.062500,0.812012,0.536621
Sun May 14 14:43:44 2017,-16.000000,-7.000000,-17.000000,-3.000000,-2.000000,-4.000000,0.000000,-6.000000,5.375000,0.375000,0.062500,-0.062500,0.812012,0.536621
Sun May 14 14:43:44 2017,-16.000000,-7.000000,-17.000000,-3.000000,-2.000000,-4.000000,0.000000,-6.000000,5.375000,0.375000,0.062500,-0.062500,0.812012,0.536621
Sun May 14 14:43:44 2017,0.000000,22.000000,5.000000,-2.000000,-15.000000,-24.000000,-10.000000,-2.000000,5.375000,0.375000,0.062500,-0.062500,0.812012,0.536621
Sun May 14 14:43:44 2017,-1.000000,8.000000,4.000000,1.000000,9.000000,-9.000000,0.000000,-3.000000,5.562500,-0.562500,-1.625000,-0.058105,0.842285,0.510254
Sun May 14 14:43:44 2017,-1.000000,8.000000,4.000000,1.000000,9.000000,-9.000000,0.000000,-3.000000,5.562500,-0.562500,-1.625000,-0.058105,0.842285,0.510254
Sun May 14 14:43:44 2017,-1.000000,8.000000,4.000000,1.000000,9.000000,-9.000000,0.000000,-3.000000,5.562500,-0.562500,-1.625000,-0.058105,0.842285,0.510254
Sun May 14 14:43:44 2017,-8.000000,2.000000,-3.000000,-6.000000,-8.000000,-6.000000,-4.000000,-8.000000,2.000000,0.437500,-1.062500,-0.053223,0.836426,0.521484
Sun May 14 14:43:44 2017,-8.000000,2.000000,-3.000000,-6.000000,-8.000000,-6.000000,-4.000000,-8.000000,2.000000,0.437500,-1.062500,-0.053223,0.836426,0.521484
Sun May 14 14:43:44 2017,-8.000000,2.000000,-3.000000,-6.000000,-8.000000,-6.000000,-4.000000,-8.000000,2.000000,0.437500,-1.062500,-0.053223,0.836426,0.521484
Sun May 14 14:43:44 2017,-8.000000,2.000000,-3.000000,-6.000000,-8.000000,-6.000000,-4.000000,-8.000000,2.000000,0.437500,-1.062500,-0.053223,0.836426,0.521484
Sun May 14 14:43:44 2017,-9.000000,-36.000000,-29.000000,-12.000000,-14.000000,-7.000000,-6.000000,-5.000000,2.562500,1.312500,-0.187500,-0.048340,0.824219,0.544434
Sun May 14 14:43:44 2017,-9.000000,-36.000000,-29.000000,-12.000000,-14.000000,-7.000000,-6.000000,-5.000000,2.562500,1.312500,-0.187500,-0.048340,0.824219,0.544434
Sun May 14 14:43:44 2017,-9.000000,-36.000000,-29.000000,-12.000000,-14.000000,-7.000000,-6.000000,-5.000000,2.562500,1.312500,-0.187500,-0.048340,0.824219,0.544434
Sun May 14 14:43:44 2017,17.000000,13.000000,-7.000000,-1.000000,-2.000000,3.000000,3.000000,6.000000,2.562500,1.312500,-0.187500,-0.048340,0.824219,0.544434
Sun May 14 14:43:44 2017,24.000000,13.000000,16.000000,7.000000,6.000000,6.000000,6.000000,8.000000,5.875000,0.500000,-0.375000,-0.073242,0.805176,0.533691
Sun May 14 14:43:44 2017,24.000000,13.000000,16.000000,7.000000,6.000000,6.000000,6.000000,8.000000,5.875000,0.500000,-0.375000,-0.073242,0.805176,0.533691
Sun May 14 14:43:44 2017,24.000000,13.000000,16.000000,7.000000,6.000000,6.000000,6.000000,8.000000,5.875000,0.500000,-0.375000,-0.073242,0.805176,0.533691
Sun May 14 14:43:44 2017,-12.000000,-2.000000,-6.000000,-2.000000,-12.000000,-10.000000,-4.000000,-6.000000,9.687500,2.375000,0.500000,-0.052246,0.821777,0.533203
Sun May 14 14:43:44 2017,-12.000000,-2.000000,-6.000000,-2.000000,-12.000000,-10.000000,-4.000000,-6.000000,9.687500,2.375000,0.500000,-0.052246,0.821777,0.533203
Sun May 14 14:43:44 2017,-12.000000,-2.000000,-6.000000,-2.000000,-12.000000,-10.000000,-4.000000,-6.000000,9.687500,2.375000,0.500000,-0.052246,0.821777,0.533203
Sun May 14 14:43:44 2017,-12.000000,-2.000000,-6.000000,-2.000000,-12.000000,-10.000000,-4.000000,-6.000000,9.687500,2.375000,0.500000,-0.052246,0.821777,0.533203
Sun May 14 14:43:44 2017,-9.000000,6.000000,11.000000,11.000000,6.000000,6.000000,1.000000,0.000000,9.875000,1.437500,0.875000,-0.071289,0.852051,0.512207
Sun May 14 14:43:44 2017,-9.000000,6.000000,11.000000,11.000000,6.000000,6.000000,1.000000,0.000000,9.875000,1.437500,0.875000,-0.071289,0.852051,0.512207
Sun May 14 14:43:44 2017,-9.000000,6.000000,11.000000,11.000000,6.000000,6.000000,1.000000,0.000000,9.875000,1.437500,0.875000,-0.071289,0.852051,0.512207
Sun May 14 14:43:44 2017,-9.000000,6.000000,11.000000,11.000000,6.000000,6.000000,1.000000,0.000000,9.875000,1.437500,0.875000,-0.071289,0.852051,0.512207
Sun May 14 14:43:44 2017,5.000000,2.000000,-3.000000,-1.000000,7.000000,13.000000,5.000000,1.000000,3.437500,-0.187500,0.500000,-0.074219,0.865723,0.496094
Sun May 14 14:43:44 2017,5.000000,2.000000,-3.000000,-1.000000,7.000000,13.000000,5.000000,1.000000,-1.187500,-1.312500,2.062500,-0.060547,0.854980,0.511719
Sun May 14 14:43:44 2017,5.000000,2.000000,-3.000000,-1.000000,7.000000,13.000000,5.000000,1.000000,-1.187500,-1.312500,2.062500,-0.060547,0.854980,0.511719
Sun May 14 14:43:44 2017,-1.000000,9.000000,4.000000,-2.000000,-4.000000,-5.000000,-1.000000,5.000000,-1.187500,-1.312500,2.062500,-0.060547,0.854980,0.511719
Sun May 14 14:43:44 2017,-1.000000,9.000000,4.000000,-2.000000,-4.000000,-5.000000,-1.000000,5.000000,-2.750000,-1.062500,2.062500,-0.047852,0.828125,0.517090
Sun May 14 14:43:44 2017,-1.000000,9.000000,4.000000,-2.000000,-4.000000,-5.000000,-1.000000,5.000000,-2.750000,-1.062500,2.062500,-0.047852,0.828125,0.517090
Sun May 14 14:43:44 2017,-1.000000,9.000000,4.000000,-2.000000,-4.000000,-5.000000,-1.000000,5.000000,-2.750000,-1.062500,2.062500,-0.047852,0.828125,0.517090
Sun May 14 14:43:44 2017,-15.000000,-23.000000,-11.000000,0.000000,1.000000,1.000000,-2.000000,-11.000000,-2.750000,-1.062500,2.062500,-0.047852,0.828125,0.517090
Sun May 14 14:43:44 2017,-15.000000,-23.000000,-11.000000,0.000000,1.000000,1.000000,-2.000000,-11.000000,-0.250000,0.500000,2.000000,-0.057129,0.805664,0.526367
Sun May 14 14:43:44 2017,-15.000000,-23.000000,-11.000000,0.000000,1.000000,1.000000,-2.000000,-11.000000,-0.250000,0.500000,2.000000,-0.057129,0.805664,0.526367
Sun May 14 14:43:44 2017,-15.000000,-23.000000,-11.000000,0.000000,1.000000,1.000000,-2.000000,-11.000000,-0.250000,0.500000,2.000000,-0.057129,0.805664,0.526367
Sun May 14 14:43:44 2017,-1.000000,-5.000000,5.000000,2.000000,13.000000,10.000000,-2.000000,-1.000000,-0.250000,0.500000,2.000000,-0.057129,0.805664,0.526367
Sun May 14 14:43:44 2017,-1.000000,-5.000000,5.000000,2.000000,13.000000,10.000000,-2.000000,-1.000000,1.625000,1.312500,1.062500,-0.049805,0.827637,0.527344
Sun May 14 14:43:44 2017,7.000000,9.000000,-4.000000,-6.000000,-13.000000,-19.000000,-6.000000,0.000000,1.625000,1.312500,1.062500,-0.049805,0.827637,0.527344
Sun May 14 14:43:44 2017,7.000000,9.000000,-4.000000,-6.000000,-13.000000,-19.000000,-6.000000,0.000000,1.625000,1.312500,1.062500,-0.049805,0.827637,0.527344
Sun May 14 14:43:44 2017,7.000000,9.000000,-4.000000,-6.000000,-13.000000,-19.000000,-6.000000,0.000000,-1.750000,1.500000,0.125000,-0.058105,0.840332,0.510254
Sun May 14 14:43:44 2017,7.000000,9.000000,-4.000000,-6.000000,-13.000000,-19.000000,-6.000000,0.000000,-1.750000,1.500000,0.125000,-0.058105,0.840332,0.510254
Sun May 14 14:43:44 2017,10.000000,-3.000000,-5.000000,-7.000000,4.000000,22.000000,16.000000,6.000000,-1.750000,1.500000,0.125000,-0.058105,0.840332,0.510254
Sun May 14 14:43:44 2017,10.000000,-3.000000,-5.000000,-7.000000,4.000000,22.000000,16.000000,6.000000,-1.750000,1.500000,0.125000,-0.058105,0.840332,0.510254
Sun May 14 14:43:44 2017,10.000000,-3.000000,-5.000000,-7.000000,4.000000,22.000000,16.000000,6.000000,-3.750000,1.812500,-0.062500,-0.053223,0.807617,0.512695
Sun May 14 14:43:44 2017,10.000000,-3.000000,-5.000000,-7.000000,4.000000,22.000000,16.000000,6.000000,-3.750000,1.812500,-0.062500,-0.053223,0.807617,0.512695
Sun May 14 14:43:44 2017,-5.000000,4.000000,2.000000,-1.000000,-7.000000,-11.000000,-8.000000,-1.000000,-3.750000,1.812500,-0.062500,-0.053223,0.807617,0.512695
Sun May 14 14:43:44 2017,-5.000000,4.000000,2.000000,-1.000000,-7.000000,-11.000000,-8.000000,-1.000000,-4.312500,1.375000,-2.500000,-0.050293,0.839355,0.509766
Sun May 14 14:43:44 2017,-5.000000,4.000000,2.000000,-1.000000,-7.000000,-11.000000,-8.000000,-1.000000,-4.312500,1.375000,-2.500000,-0.050293,0.839355,0.509766
Sun May 14 14:43:44 2017,-21.000000,-7.000000,2.000000,-1.000000,-4.000000,-3.000000,0.000000,-2.000000,-4.312500,1.375000,-2.500000,-0.050293,0.839355,0.509766
Sun May 14 14:43:44 2017,-21.000000,-7.000000,2.000000,-1.000000,-4.000000,-3.000000,0.000000,-2.000000,2.625000,3.750000,-2.375000,-0.042480,0.841797,0.521484
Sun May 14 14:43:44 2017,-21.000000,-7.000000,2.000000,-1.000000,-4.000000,-3.000000,0.000000,-2.000000,2.625000,3.750000,-2.375000,-0.042480,0.841797,0.521484
Sun May 14 14:43:44 2017,-21.000000,-7.000000,2.000000,-1.000000,-4.000000,-3.000000,0.000000,-2.000000,2.625000,3.750000,-2.375000,-0.042480,0.841797,0.521484
Sun May 14 14:43:44 2017,8.000000,10.000000,-4.000000,-5.000000,-4.000000,-9.000000,-18.000000,3.000000,2.625000,3.750000,-2.375000,-0.042480,0.841797,0.521484
Sun May 14 14:43:44 2017,8.000000,10.000000,-4.000000,-5.000000,-4.000000,-9.000000,-18.000000,3.000000,2.625000,3.750000,-2.375000,-0.042480,0.841797,0.521484
Sun May 14 14:43:44 2017,8.000000,10.000000,-4.000000,-5.000000,-4.000000,-9.000000,-18.000000,3.000000,2.625000,3.750000,-2.375000,-0.042480,0.841797,0.521484
Sun May 14 14:43:44 2017,8.000000,10.000000,-4.000000,-5.000000,-4.000000,-9.000000,-18.000000,3.000000,3.000000,4.062500,-1.875000,-0.069824,0.830078,0.526855
Sun May 14 14:43:44 2017,0.000000,-1.000000,1.000000,0.000000,-4.000000,-1.000000,4.000000,1.000000,3.000000,4.062500,-1.875000,-0.069824,0.830078,0.526855
Sun May 14 14:43:44 2017,0.000000,-1.000000,1.000000,0.000000,-4.000000,-1.000000,4.000000,1.000000,0.437500,1.812500,-2.750000,-0.084473,0.840332,0.510254
Sun May 14 14:43:44 2017,0.000000,-1.000000,1.000000,0.000000,-4.000000,-1.000000,4.000000,1.000000,0.437500,1.812500,-2.750000,-0.084473,0.840332,0.510254
Sun May 14 14:43:44 2017,-8.000000,-13.000000,-17.000000,-8.000000,-2.000000,-1.000000,-4.000000,-5.000000,0.437500,1.812500,-2.750000,-0.084473,0.840332,0.510254
Sun May 14 14:43:44 2017,-8.000000,-13.000000,-17.000000,-8.000000,-2.000000,-1.000000,-4.000000,-5.000000,-3.687500,-0.125000,-1.562500,-0.074707,0.815918,0.526367
Sun May 14 14:43:44 2017,-8.000000,-13.000000,-17.000000,-8.000000,-2.000000,-1.000000,-4.000000,-5.000000,-3.687500,-0.125000,-1.562500,-0.074707,0.815918,0.526367
Sun May 14 14:43:44 2017,-8.000000,-13.000000,-17.000000,-8.000000,-2.000000,-1.000000,-4.000000,-5.000000,-3.687500,-0.125000,-1.562500,-0.074707,0.815918,0.526367
Sun May 14 14:43:44 2017,4.000000,10.000000,16.000000,8.000000,25.000000,13.000000,3.000000,0.000000,-3.687500,-0.125000,-1.562500,-0.074707,0.815918,0.526367
Sun May 14 14:43:44 2017,4.000000,10.000000,16.000000,8.000000,25.000000,13.000000,3.000000,0.000000,1.562500,0.000000,-1.875000,-0.060547,0.833984,0.510742
Sun May 14 14:43:44 2017,4.000000,10.000000,16.000000,8.000000,25.000000,13.000000,3.000000,0.000000,1.562500,0.000000,-1.875000,-0.060547,0.833984,0.510742
Sun May 14 14:43:44 2017,4.000000,10.000000,16.000000,8.000000,25.000000,13.000000,3.000000,0.000000,1.562500,0.000000,-1.875000,-0.060547,0.833984,0.510742
Sun May 14 14:43:45 2017,2.000000,-18.000000,10.000000,-3.000000,-25.000000,-22.000000,-4.000000,0.000000,1.562500,0.000000,-1.875000,-0.060547,0.833984,0.510742
Sun May 14 14:43:45 2017,2.000000,-18.000000,10.000000,-3.000000,-25.000000,-22.000000,-4.000000,0.000000,3.500000,-0.250000,-1.375000,-0.078613,0.842285,0.512207
Sun May 14 14:43:45 2017,2.000000,-18.000000,10.000000,-3.000000,-25.000000,-22.000000,-4.000000,0.000000,3.500000,-0.250000,-1.375000,-0.078613,0.842285,0.512207
Sun May 14 14:43:45 2017,1.000000,-39.000000,-5.000000,-3.000000,8.000000,6.000000,-1.000000,3.000000,3.500000,-0.250000,-1.375000,-0.078613,0.842285,0.512207
Sun May 14 14:43:45 2017,2.000000,-28.000000,-32.000000,-12.000000,-5.000000,-4.000000,-8.000000,-2.000000,-3.750000,-1.500000,0.312500,-0.063477,0.865234,0.514160
Sun May 14 14:43:45 2017,2.000000,-28.000000,-32.000000,-12.000000,-5.000000,-4.000000,-8.000000,-2.000000,-3.750000,-1.500000,0.312500,-0.063477,0.865234,0.514160
Sun May 14 14:43:45 2017,2.000000,-28.000000,-32.000000,-12.000000,-5.000000,-4.000000,-8.000000,-2.000000,-3.750000,-1.500000,0.312500,-0.063477,0.865234,0.514160
Sun May 14 14:43:45 2017,-3.000000,-29.000000,-4.000000,0.000000,1.000000,3.000000,9.000000,0.000000,-3.750000,-1.500000,0.312500,-0.063477,0.865234,0.514160
Sun May 14 14:43:45 2017,-3.000000,-29.000000,-4.000000,0.000000,1.000000,3.000000,9.000000,0.000000,-5.687500,-2.250000,1.625000,-0.057129,0.873047,0.525879
Sun May 14 14:43:45 2017,-3.000000,-29.000000,-4.000000,0.000000,1.000000,3.000000,9.000000,0.000000,-5.687500,-2.250000,1.625000,-0.057129,0.873047,0.525879
Sun May 14 14:43:45 2017,-3.000000,-29.000000,-4.000000,0.000000,1.000000,3.000000,9.000000,0.000000,-5.687500,-2.250000,1.625000,-0.057129,0.873047,0.525879
Sun May 14 14:43:45 2017,0.000000,29.000000,8.000000,-3.000000,-1.000000,3.000000,0.000000,0.000000,-5.687500,-2.250000,1.625000,-0.057129,0.873047,0.525879
Sun May 14 14:43:45 2017,0.000000,29.000000,8.000000,-3.000000,-1.000000,3.000000,0.000000,0.000000,-10.875000,-4.750000,3.750000,-0.065918,0.857422,0.514648
Sun May 14 14:43:45 2017,-5.000000,-42.000000,-21.000000,-5.000000,-15.000000,-30.000000,-4.000000,-6.000000,-10.875000,-4.750000,3.750000,-0.065918,0.857422,0.514648
Sun May 14 14:43:45 2017,5.000000,20.000000,17.000000,7.000000,4.000000,14.000000,-7.000000,-1.000000,-10.875000,-4.750000,3.750000,-0.065918,0.857422,0.514648
Sun May 14 14:43:45 2017,-3.000000,11.000000,-2.000000,2.000000,14.000000,9.000000,7.000000,-4.000000,-14.687500,-4.812500,3.125000,-0.074707,0.832031,0.523926
Sun May 14 14:43:45 2017,-3.000000,11.000000,-2.000000,2.000000,14.000000,9.000000,7.000000,-4.000000,-14.687500,-4.812500,3.125000,-0.074707,0.832031,0.523926
Sun May 14 14:43:45 2017,-3.000000,11.000000,-2.000000,2.000000,14.000000,9.000000,7.000000,-4.000000,-14.687500,-4.812500,3.125000,-0.074707,0.832031,0.523926
Sun May 14 14:43:45 2017,-5.000000,3.000000,2.000000,4.000000,-3.000000,-7.000000,-11.000000,0.000000,-14.687500,-4.812500,3.125000,-0.074707,0.832031,0.523926
Sun May 14 14:43:45 2017,-5.000000,3.000000,2.000000,4.000000,-3.000000,-7.000000,-11.000000,0.000000,-15.812500,-4.375000,2.625000,-0.056152,0.793945,0.539062
Sun May 14 14:43:45 2017,-5.000000,3.000000,2.000000,4.000000,-3.000000,-7.000000,-11.000000,0.000000,-15.812500,-4.375000,2.625000,-0.056152,0.793945,0.539062
Sun May 14 14:43:45 2017,-5.000000,3.000000,2.000000,4.000000,-3.000000,-7.000000,-11.000000,0.000000,-15.812500,-4.375000,2.625000,-0.056152,0.793945,0.539062
Sun May 14 14:43:45 2017,2.000000,28.000000,8.000000,1.000000,-3.000000,-3.000000,-2.000000,3.000000,-15.812500,-4.375000,2.625000,-0.056152,0.793945,0.539062
Sun May 14 14:43:45 2017,2.000000,28.000000,8.000000,1.000000,-3.000000,-3.000000,-2.000000,3.000000,-10.062500,-2.812500,-0.187500,-0.047363,0.770020,0.545898
Sun May 14 14:43:45 2017,-4.000000,6.000000,4.000000,-1.000000,6.000000,2.000000,-6.000000,-2.000000,-10.062500,-2.812500,-0.187500,-0.047363,0.770020,0.545898
Sun May 14 14:43:45 2017,-4.000000,6.000000,4.000000,-1.000000,6.000000,2.000000,-6.000000,-2.000000,-10.062500,-2.812500,-0.187500,-0.047363,0.770020,0.545898
Sun May 14 14:43:45 2017,-5.000000,-2.000000,-5.000000,-2.000000,-13.000000,-2.000000,-2.000000,-7.000000,0.125000,-0.187500,-1.062500,-0.048340,0.797363,0.539551
Sun May 14 14:43:45 2017,-5.000000,-2.000000,-5.000000,-2.000000,-13.000000,-2.000000,-2.000000,-7.000000,0.125000,-0.187500,-1.062500,-0.048340,0.797363,0.539551
Sun May 14 14:43:45 2017,4.000000,-11.000000,2.000000,-3.000000,-3.000000,-6.000000,0.000000,-1.000000,0.125000,-0.187500,-1.062500,-0.048340,0.797363,0.539551
Sun May 14 14:43:45 2017,4.000000,-11.000000,2.000000,-3.000000,-3.000000,-6.000000,0.000000,-1.000000,0.125000,-0.187500,-1.062500,-0.048340,0.797363,0.539551
Sun May 14 14:43:45 2017,4.000000,-11.000000,2.000000,-3.000000,-3.000000,-6.000000,0.000000,-1.000000,1.250000,-0.062500,-2.375000,-0.067871,0.818359,0.531250
Sun May 14 14:43:45 2017,4.000000,-11.000000,2.000000,-3.000000,-3.000000,-6.000000,0.000000,-1.000000,1.250000,-0.062500,-2.375000,-0.067871,0.818359,0.531250
Sun May 14 14:43:45 2017,4.000000,-11.000000,2.000000,-3.000000,-3.000000,-6.000000,0.000000,-1.000000,1.250000,-0.062500,-2.375000,-0.067871,0.818359,0.531250
Sun May 14 14:43:45 2017,-1.000000,10.000000,1.000000,-1.000000,1.000000,0.000000,1.000000,-3.000000,1.250000,-0.062500,-2.375000,-0.067871,0.818359,0.531250
Sun May 14 14:43:45 2017,-1.000000,10.000000,1.000000,-1.000000,1.000000,0.000000,1.000000,-3.000000,-4.750000,-2.000000,-3.312500,-0.069824,0.853516,0.524414
Sun May 14 14:43:45 2017,2.000000,-9.000000,7.000000,3.000000,7.000000,0.000000,0.000000,3.000000,-4.750000,-2.000000,-3.312500,-0.069824,0.853516,0.524414
Sun May 14 14:43:45 2017,1.000000,3.000000,-1.000000,-2.000000,-2.000000,-1.000000,2.000000,-3.000000,-4.750000,-2.000000,-3.312500,-0.069824,0.853516,0.524414
Sun May 14 14:43:45 2017,1.000000,-4.000000,-2.000000,-1.000000,0.000000,4.000000,1.000000,0.000000,-14.437500,-1.812500,-4.625000,-0.067383,0.817383,0.524902
Sun May 14 14:43:45 2017,1.000000,-4.000000,-2.000000,-1.000000,0.000000,4.000000,1.000000,0.000000,-14.437500,-1.812500,-4.625000,-0.067383,0.817383,0.524902
Sun May 14 14:43:45 2017,-5.000000,21.000000,9.000000,-2.000000,-2.000000,-2.000000,-1.000000,-4.000000,-14.437500,-1.812500,-4.625000,-0.067383,0.817383,0.524902
Sun May 14 14:43:45 2017,-5.000000,21.000000,9.000000,-2.000000,-2.000000,-2.000000,-1.000000,-4.000000,-14.437500,-1.812500,-4.625000,-0.067383,0.817383,0.524902
Sun May 14 14:43:45 2017,-5.000000,21.000000,9.000000,-2.000000,-2.000000,-2.000000,-1.000000,-4.000000,-8.500000,-0.562500,-4.625000,-0.054199,0.787598,0.560547
Sun May 14 14:43:45 2017,-5.000000,21.000000,9.000000,-2.000000,-2.000000,-2.000000,-1.000000,-4.000000,-8.500000,-0.562500,-4.625000,-0.054199,0.787598,0.560547
Sun May 14 14:43:45 2017,-6.000000,3.000000,11.000000,4.000000,-2.000000,-2.000000,1.000000,0.000000,-8.500000,-0.562500,-4.625000,-0.054199,0.787598,0.560547
Sun May 14 14:43:45 2017,-6.000000,3.000000,11.000000,4.000000,-2.000000,-2.000000,1.000000,0.000000,-8.500000,-0.562500,-4.625000,-0.054199,0.787598,0.560547
Sun May 14 14:43:45 2017,-6.000000,3.000000,11.000000,4.000000,-2.000000,-2.000000,1.000000,0.000000,-5.937500,-0.187500,-0.562500,-0.053223,0.822266,0.564941
Sun May 14 14:43:45 2017,-6.000000,3.000000,11.000000,4.000000,-2.000000,-2.000000,1.000000,0.000000,-5.937500,-0.187500,-0.562500,-0.053223,0.822266,0.564941
Sun May 14 14:43:45 2017,-6.000000,3.000000,11.000000,4.000000,-2.000000,-2.000000,1.000000,0.000000,-5.937500,-0.187500,-0.562500,-0.053223,0.822266,0.564941
Sun May 14 14:43:45 2017,-7.000000,-21.000000,-14.000000,-9.000000,-3.000000,-3.000000,-3.000000,-5.000000,-5.312500,-1.312500,-3.000000,-0.062988,0.854492,0.556641
Sun May 14 14:43:45 2017,-7.000000,-21.000000,-14.000000,-9.000000,-3.000000,-3.000000,-3.000000,-5.000000,-5.312500,-1.312500,-3.000000,-0.062988,0.854492,0.556641
Sun May 14 14:43:45 2017,6.000000,-2.000000,3.000000,4.000000,4.000000,-1.000000,-6.000000,6.000000,-5.312500,-1.312500,-3.000000,-0.062988,0.854492,0.556641
Sun May 14 14:43:45 2017,6.000000,-2.000000,3.000000,4.000000,4.000000,-1.000000,-6.000000,6.000000,-11.562500,-3.187500,-0.562500,-0.078125,0.855469,0.540039
Sun May 14 14:43:45 2017,6.000000,-2.000000,3.000000,4.000000,4.000000,-1.000000,-6.000000,6.000000,-11.562500,-3.187500,-0.562500,-0.078125,0.855469,0.540039
Sun May 14 14:43:45 2017,6.000000,-2.000000,3.000000,4.000000,4.000000,-1.000000,-6.000000,6.000000,-11.562500,-3.187500,-0.562500,-0.078125,0.855469,0.540039
Sun May 14 14:43:45 2017,7.000000,17.000000,0.000000,3.000000,4.000000,6.000000,14.000000,6.000000,-11.562500,-3.187500,-0.562500,-0.078125,0.855469,0.540039
Sun May 14 14:43:45 2017,7.000000,17.000000,0.000000,3.000000,4.000000,6.000000,14.000000,6.000000,-21.750000,-6.625000,0.062500,-0.079590,0.887207,0.528809
Sun May 14 14:43:45 2017,7.000000,17.000000,0.000000,3.000000,4.000000,6.000000,14.000000,6.000000,-21.750000,-6.625000,0.062500,-0.079590,0.887207,0.528809
Sun May 14 14:43:45 2017,7.000000,17.000000,0.000000,3.000000,4.000000,6.000000,14.000000,6.000000,-21.750000,-6.625000,0.062500,-0.079590,0.887207,0.528809
Sun May 14 14:43:45 2017,0.000000,-12.000000,-9.000000,3.000000,5.000000,8.000000,-2.000000,1.000000,-21.750000,-6.625000,0.062500,-0.079590,0.887207,0.528809
Sun May 14 14:43:45 2017,0.000000,-12.000000,-9.000000,3.000000,5.000000,8.000000,-2.000000,1.000000,-38.625000,-9.625000,0.562500,-0.070801,0.848633,0.554199
Sun May 14 14:43:45 2017,0.000000,-12.000000,-9.000000,3.000000,5.000000,8.000000,-2.000000,1.000000,-38.625000,-9.625000,0.562500,-0.070801,0.848633,0.554199
Sun May 14 14:43:45 2017,-15.000000,-10.000000,-24.000000,-12.000000,-9.000000,-13.000000,-20.000000,-11.000000,-38.625000,-9.625000,0.562500,-0.070801,0.848633,0.554199
Sun May 14 14:43:45 2017,-15.000000,-10.000000,-24.000000,-12.000000,-9.000000,-13.000000,-20.000000,-11.000000,-41.125000,-12.625000,2.187500,-0.059082,0.780762,0.571777
Sun May 14 14:43:45 2017,-15.000000,-10.000000,-24.000000,-12.000000,-9.000000,-13.000000,-20.000000,-11.000000,-41.125000,-12.625000,2.187500,-0.059082,0.780762,0.571777
Sun May 14 14:43:45 2017,2.000000,-9.000000,7.000000,3.000000,-2.000000,-1.000000,-2.000000,0.000000,-41.125000,-12.625000,2.187500,-0.059082,0.780762,0.571777
Sun May 14 14:43:45 2017,2.000000,-9.000000,7.000000,3.000000,-2.000000,-1.000000,-2.000000,0.000000,-41.125000,-12.625000,2.187500,-0.059082,0.780762,0.571777
Sun May 14 14:43:45 2017,2.000000,-9.000000,7.000000,3.000000,-2.000000,-1.000000,-2.000000,0.000000,-33.812500,-9.125000,3.687500,-0.041504,0.720215,0.609863
Sun May 14 14:43:45 2017,2.000000,-9.000000,7.000000,3.000000,-2.000000,-1.000000,-2.000000,0.000000,-33.812500,-9.125000,3.687500,-0.041504,0.720215,0.609863
Sun May 14 14:43:45 2017,3.000000,8.000000,15.000000,5.000000,1.000000,-2.000000,2.000000,-1.000000,-33.812500,-9.125000,3.687500,-0.041504,0.720215,0.609863
Sun May 14 14:43:45 2017,3.000000,8.000000,15.000000,5.000000,1.000000,-2.000000,2.000000,-1.000000,-33.812500,-9.125000,3.687500,-0.041504,0.720215,0.609863
Sun May 14 14:43:45 2017,3.000000,8.000000,15.000000,5.000000,1.000000,-2.000000,2.000000,-1.000000,-16.750000,-7.562500,2.062500,-0.039551,0.691895,0.629883
Sun May 14 14:43:45 2017,7.000000,4.000000,7.000000,8.000000,-2.000000,2.000000,2.000000,7.000000,-16.750000,-7.562500,2.062500,-0.039551,0.691895,0.629883
Sun May 14 14:43:45 2017,7.000000,4.000000,7.000000,8.000000,-2.000000,2.000000,2.000000,7.000000,-6.062500,-4.687500,0.187500,-0.071289,0.734863,0.622559
Sun May 14 14:43:45 2017,7.000000,4.000000,7.000000,8.000000,-2.000000,2.000000,2.000000,7.000000,-6.062500,-4.687500,0.187500,-0.071289,0.734863,0.622559
Sun May 14 14:43:45 2017,7.000000,4.000000,7.000000,8.000000,-2.000000,2.000000,2.000000,7.000000,-6.062500,-4.687500,0.187500,-0.071289,0.734863,0.622559
Sun May 14 14:43:45 2017,-8.000000,-34.000000,-7.000000,-6.000000,-2.000000,-4.000000,-10.000000,-1.000000,-6.062500,-4.687500,0.187500,-0.071289,0.734863,0.622559
Sun May 14 14:43:45 2017,-8.000000,-34.000000,-7.000000,-6.000000,-2.000000,-4.000000,-10.000000,-1.000000,-6.812500,-5.500000,-2.812500,-0.066406,0.797852,0.591797
Sun May 14 14:43:45 2017,-8.000000,-34.000000,-7.000000,-6.000000,-2.000000,-4.000000,-10.000000,-1.000000,-6.812500,-5.500000,-2.812500,-0.066406,0.797852,0.591797
Sun May 14 14:43:45 2017,-8.000000,-34.000000,-7.000000,-6.000000,-2.000000,-4.000000,-10.000000,-1.000000,-6.812500,-5.500000,-2.812500,-0.066406,0.797852,0.591797
Sun May 14 14:43:45 2017,7.000000,48.000000,12.000000,-2.000000,-1.000000,0.000000,7.000000,7.000000,-6.812500,-5.500000,-2.812500,-0.066406,0.797852,0.591797
Sun May 14 14:43:45 2017,7.000000,48.000000,12.000000,-2.000000,-1.000000,0.000000,7.000000,7.000000,-18.625000,-8.437500,-5.187500,-0.054688,0.807617,0.585938
Sun May 14 14:43:45 2017,1.000000,34.000000,-3.000000,-10.000000,-1.000000,-1.000000,0.000000,-3.000000,-18.625000,-8.437500,-5.187500,-0.054688,0.807617,0.585938
Sun May 14 14:43:45 2017,1.000000,34.000000,-3.000000,-10.000000,-1.000000,-1.000000,0.000000,-3.000000,-21.937500,-7.000000,-3.937500,-0.031250,0.744141,0.609375
Sun May 14 14:43:45 2017,1.000000,34.000000,-3.000000,-10.000000,-1.000000,-1.000000,0.000000,-3.000000,-21.937500,-7.000000,-3.937500,-0.031250,0.744141,0.609375
Sun May 14 14:43:45 2017,1.000000,34.000000,-3.000000,-10.000000,-1.000000,-1.000000,0.000000,-3.000000,-21.937500,-7.000000,-3.937500,-0.031250,0.744141,0.609375
Sun May 14 14:43:45 2017,-8.000000,-6.000000,-7.000000,9.000000,-2.000000,-2.000000,3.000000,-4.000000,-21.937500,-7.000000,-3.937500,-0.031250,0.744141,0.609375
Sun May 14 14:43:45 2017,-8.000000,-6.000000,-7.000000,9.000000,-2.000000,-2.000000,3.000000,-4.000000,-10.187500,-3.000000,-1.812500,-0.023438,0.786133,0.590820
Sun May 14 14:43:45 2017,-8.000000,-6.000000,-7.000000,9.000000,-2.000000,-2.000000,3.000000,-4.000000,-10.187500,-3.000000,-1.812500,-0.023438,0.786133,0.590820
Sun May 14 14:43:45 2017,-8.000000,-6.000000,-7.000000,9.000000,-2.000000,-2.000000,3.000000,-4.000000,-10.187500,-3.000000,-1.812500,-0.023438,0.786133,0.590820
Sun May 14 14:43:45 2017,2.000000,-23.000000,-8.000000,-1.000000,0.000000,2.000000,2.000000,-1.000000,-10.187500,-3.000000,-1.812500,-0.023438,0.786133,0.590820
Sun May 14 14:43:45 2017,2.000000,-23.000000,-8.000000,-1.000000,0.000000,2.000000,2.000000,-1.000000,-10.437500,0.562500,4.000000,-0.042480,0.775879,0.608398
Sun May 14 14:43:45 2017,2.000000,-23.000000,-8.000000,-1.000000,0.000000,2.000000,2.000000,-1.000000,-10.437500,0.562500,4.000000,-0.042480,0.775879,0.608398
Sun May 14 14:43:45 2017,8.000000,22.000000,34.000000,22.000000,8.000000,3.000000,1.000000,1.000000,-10.437500,0.562500,4.000000,-0.042480,0.775879,0.608398
Sun May 14 14:43:45 2017,8.000000,22.000000,34.000000,22.000000,8.000000,3.000000,1.000000,1.000000,-16.687500,1.375000,5.437500,-0.023926,0.763184,0.615234
Sun May 14 14:43:45 2017,8.000000,22.000000,34.000000,22.000000,8.000000,3.000000,1.000000,1.000000,-16.687500,1.375000,5.437500,-0.023926,0.763184,0.615234
Sun May 14 14:43:45 2017,8.000000,22.000000,34.000000,22.000000,8.000000,3.000000,1.000000,1.000000,-16.687500,1.375000,5.437500,-0.023926,0.763184,0.615234
Sun May 14 14:43:45 2017,-28.000000,-29.000000,-13.000000,-13.000000,-7.000000,-3.000000,-1.000000,-13.000000,-16.687500,1.375000,5.437500,-0.023926,0.763184,0.615234
Sun May 14 14:43:45 2017,-28.000000,-29.000000,-13.000000,-13.000000,-7.000000,-3.000000,-1.000000,-13.000000,-15.625000,1.875000,7.625000,-0.036621,0.698242,0.629395
Sun May 14 14:43:45 2017,-28.000000,-29.000000,-13.000000,-13.000000,-7.000000,-3.000000,-1.000000,-13.000000,-15.625000,1.875000,7.625000,-0.036621,0.698242,0.629395
Sun May 14 14:43:45 2017,-28.000000,-29.000000,-13.000000,-13.000000,-7.000000,-3.000000,-1.000000,-13.000000,-15.625000,1.875000,7.625000,-0.036621,0.698242,0.629395
Sun May 14 14:43:45 2017,7.000000,3.000000,-1.000000,-6.000000,-2.000000,-3.000000,-1.000000,-2.000000,-4.375000,1.125000,7.000000,-0.070312,0.691895,0.646484
Sun May 14 14:43:45 2017,7.000000,3.000000,-1.000000,-6.000000,-2.000000,-3.000000,-1.000000,-2.000000,-4.375000,1.125000,7.000000,-0.070312,0.691895,0.646484
Sun May 14 14:43:45 2017,0.000000,-6.000000,3.000000,-5.000000,-5.000000,-1.000000,5.000000,0.000000,-4.375000,1.125000,7.000000,-0.070312,0.691895,0.646484
Sun May 14 14:43:45 2017,0.000000,-6.000000,3.000000,-5.000000,-5.000000,-1.000000,5.000000,0.000000,12.625000,2.062500,5.875000,-0.051758,0.721680,0.645020
Sun May 14 14:43:45 2017,0.000000,-6.000000,3.000000,-5.000000,-5.000000,-1.000000,5.000000,0.000000,12.625000,2.062500,5.875000,-0.051758,0.721680,0.645020
Sun May 14 14:43:45 2017,0.000000,-6.000000,3.000000,-5.000000,-5.000000,-1.000000,5.000000,0.000000,12.625000,2.062500,5.875000,-0.051758,0.721680,0.645020
Sun May 14 14:43:45 2017,-12.000000,-34.000000,-16.000000,-2.000000,4.000000,3.000000,-4.000000,0.000000,12.625000,2.062500,5.875000,-0.051758,0.721680,0.645020
Sun May 14 14:43:45 2017,-12.000000,-34.000000,-16.000000,-2.000000,4.000000,3.000000,-4.000000,0.000000,10.125000,0.875000,4.250000,-0.053711,0.757324,0.639648
Sun May 14 14:43:45 2017,-12.000000,-34.000000,-16.000000,-2.000000,4.000000,3.000000,-4.000000,0.000000,10.125000,0.875000,4.250000,-0.053711,0.757324,0.639648
Sun May 14 14:43:45 2017,-12.000000,-34.000000,-16.000000,-2.000000,4.000000,3.000000,-4.000000,0.000000,10.125000,0.875000,4.250000,-0.053711,0.757324,0.639648
Sun May 14 14:43:45 2017,-3.000000,-12.000000,-15.000000,-5.000000,-7.000000,-9.000000,-3.000000,-1.000000,7.687500,0.937500,0.062500,-0.041504,0.759766,0.617676
Sun May 14 14:43:45 2017,-3.000000,-12.000000,-15.000000,-5.000000,-7.000000,-9.000000,-3.000000,-1.000000,7.687500,0.937500,0.062500,-0.041504,0.759766,0.617676
Sun May 14 14:43:45 2017,-3.000000,-12.000000,-15.000000,-5.000000,-7.000000,-9.000000,-3.000000,-1.000000,7.687500,0.937500,0.062500,-0.041504,0.759766,0.617676
Sun May 14 14:43:45 2017,-3.000000,-15.000000,-5.000000,3.000000,21.000000,14.000000,24.000000,7.000000,7.687500,0.937500,0.062500,-0.041504,0.759766,0.617676
Sun May 14 14:43:45 2017,-3.000000,-15.000000,-5.000000,3.000000,21.000000,14.000000,24.000000,7.000000,-4.000000,-1.250000,0.812500,-0.053711,0.734863,0.611328
Sun May 14 14:43:45 2017,-3.000000,-15.000000,-5.000000,3.000000,21.000000,14.000000,24.000000,7.000000,-4.000000,-1.250000,0.812500,-0.053711,0.734863,0.611328
Sun May 14 14:43:45 2017,-3.000000,-15.000000,-5.000000,3.000000,21.000000,14.000000,24.000000,7.000000,-4.000000,-1.250000,0.812500,-0.053711,0.734863,0.611328
Sun May 14 14:43:45 2017,13.000000,13.000000,-7.000000,-6.000000,-11.000000,-14.000000,-11.000000,-7.000000,-4.000000,-1.250000,0.812500,-0.053711,0.734863,0.611328
Sun May 14 14:43:45 2017,13.000000,13.000000,-7.000000,-6.000000,-11.000000,-14.000000,-11.000000,-7.000000,13.562500,1.937500,1.437500,-0.039551,0.681152,0.641113
Sun May 14 14:43:45 2017,13.000000,13.000000,-7.000000,-6.000000,-11.000000,-14.000000,-11.000000,-7.000000,13.562500,1.937500,1.437500,-0.039551,0.681152,0.641113
Sun May 14 14:43:45 2017,-5.000000,-4.000000,-1.000000,1.000000,1.000000,0.000000,4.000000,1.000000,13.562500,1.937500,1.437500,-0.039551,0.681152,0.641113
Sun May 14 14:43:45 2017,-1.000000,1.000000,2.000000,3.000000,-5.000000,-5.000000,-3.000000,-1.000000,13.562500,1.937500,1.437500,-0.039551,0.681152,0.641113
Sun May 14 14:43:45 2017,-1.000000,1.000000,2.000000,3.000000,-5.000000,-5.000000,-3.000000,-1.000000,34.000000,4.750000,1.875000,-0.035156,0.716797,0.654297
Sun May 14 14:43:45 2017,17.000000,23.000000,-3.000000,-3.000000,1.000000,6.000000,0.000000,3.000000,34.000000,4.750000,1.875000,-0.035156,0.716797,0.654297
Sun May 14 14:43:45 2017,17.000000,23.000000,-3.000000,-3.000000,1.000000,6.000000,0.000000,3.000000,34.000000,4.750000,1.875000,-0.035156,0.716797,0.654297
Sun May 14 14:43:45 2017,17.000000,23.000000,-3.000000,-3.000000,1.000000,6.000000,0.000000,3.000000,29.187500,2.937500,-3.375000,-0.043945,0.806641,0.601074
Sun May 14 14:43:45 2017,17.000000,23.000000,-3.000000,-3.000000,1.000000,6.000000,0.000000,3.000000,29.187500,2.937500,-3.375000,-0.043945,0.806641,0.601074
Sun May 14 14:43:45 2017,3.000000,-6.000000,2.000000,9.000000,28.000000,42.000000,16.000000,7.000000,29.187500,2.937500,-3.375000,-0.043945,0.806641,0.601074
Sun May 14 14:43:45 2017,3.000000,-6.000000,2.000000,9.000000,28.000000,42.000000,16.000000,7.000000,7.937500,1.000000,-8.937500,-0.053223,0.837891,0.546387
Sun May 14 14:43:45 2017,3.000000,-6.000000,2.000000,9.000000,28.000000,42.000000,16.000000,7.000000,7.937500,1.000000,-8.937500,-0.053223,0.837891,0.546387
Sun May 14 14:43:45 2017,3.000000,-6.000000,2.000000,9.000000,28.000000,42.000000,16.000000,7.000000,7.937500,1.000000,-8.937500,-0.053223,0.837891,0.546387
Sun May 14 14:43:45 2017,-29.000000,-9.000000,-5.000000,-8.000000,-19.000000,-15.000000,-11.000000,-6.000000,7.937500,1.000000,-8.937500,-0.053223,0.837891,0.546387
Sun May 14 14:43:45 2017,-29.000000,-9.000000,-5.000000,-8.000000,-19.000000,-15.000000,-11.000000,-6.000000,4.437500,2.937500,-7.000000,-0.025879,0.805664,0.566895
Sun May 14 14:43:45 2017,-29.000000,-9.000000,-5.000000,-8.000000,-19.000000,-15.000000,-11.000000,-6.000000,4.437500,2.937500,-7.000000,-0.025879,0.805664,0.566895
Sun May 14 14:43:45 2017,26.000000,11.000000,12.000000,0.000000,4.000000,-11.000000,-8.000000,1.000000,4.437500,2.937500,-7.000000,-0.025879,0.805664,0.566895
Sun May 14 14:43:45 2017,26.000000,11.000000,12.000000,0.000000,4.000000,-11.000000,-8.000000,1.000000,10.375000,5.375000,-4.875000,-0.028809,0.759277,0.601074
Sun May 14 14:43:45 2017,26.000000,11.000000,12.000000,0.000000,4.000000,-11.000000,-8.000000,1.000000,10.375000,5.375000,-4.875000,-0.028809,0.759277,0.601074
Sun May 14 14:43:45 2017,26.000000,11.000000,12.000000,0.000000,4.000000,-11.000000,-8.000000,1.000000,10.375000,5.375000,-4.875000,-0.028809,0.759277,0.601074
Sun May 14 14:43:45 2017,-16.000000,-5.000000,0.000000,-4.000000,-6.000000,-5.000000,0.000000,2.000000,10.375000,5.375000,-4.875000,-0.028809,0.759277,0.601074
Sun May 14 14:43:45 2017,-16.000000,-5.000000,0.000000,-4.000000,-6.000000,-5.000000,0.000000,2.000000,11.875000,6.125000,-4.437500,-0.056152,0.789062,0.602539
Sun May 14 14:43:45 2017,-16.000000,-5.000000,0.000000,-4.000000,-6.000000,-5.000000,0.000000,2.000000,11.875000,6.125000,-4.437500,-0.056152,0.789062,0.602539
Sun May 14 14:43:45 2017,-16.000000,-5.000000,0.000000,-4.000000,-6.000000,-5.000000,0.000000,2.000000,11.875000,6.125000,-4.437500,-0.056152,0.789062,0.602539
Sun May 14 14:43:45 2017,-1.000000,-8.000000,1.000000,-2.000000,-3.000000,-4.000000,-2.000000,-6.000000,11.875000,6.125000,-4.437500,-0.056152,0.789062,0.602539
Sun May 14 14:43:45 2017,-1.000000,-8.000000,1.000000,-2.000000,-3.000000,-4.000000,-2.000000,-6.000000,9.812500,5.062500,-4.312500,-0.067383,0.816895,0.596680
Sun May 14 14:43:45 2017,7.000000,38.000000,55.000000,29.000000,4.000000,-2.000000,-1.000000,0.000000,9.812500,5.062500,-4.312500,-0.067383,0.816895,0.596680
Sun May 14 14:43:45 2017,7.000000,38.000000,55.000000,29.000000,4.000000,-2.000000,-1.000000,0.000000,9.812500,5.062500,-4.312500,-0.067383,0.816895,0.596680
Sun May 14 14:43:45 2017,7.000000,38.000000,55.000000,29.000000,4.000000,-2.000000,-1.000000,0.000000,7.250000,4.875000,0.437500,-0.071289,0.791504,0.600098
Sun May 14 14:43:45 2017,7.000000,38.000000,55.000000,29.000000,4.000000,-2.000000,-1.000000,0.000000,7.250000,4.875000,0.437500,-0.071289,0.791504,0.600098
Sun May 14 14:43:45 2017,-1.000000,-11.000000,10.000000,3.000000,1.000000,0.000000,0.000000,1.000000,7.250000,4.875000,0.437500,-0.071289,0.791504,0.600098
Sun May 14 14:43:45 2017,2.000000,-6.000000,-24.000000,-15.000000,-11.000000,3.000000,-4.000000,-6.000000,7.250000,4.875000,0.437500,-0.071289,0.791504,0.600098
Sun May 14 14:43:45 2017,2.000000,-6.000000,-24.000000,-15.000000,-11.000000,3.000000,-4.000000,-6.000000,10.375000,2.562500,1.500000,-0.069824,0.804688,0.586426
Sun May 14 14:43:45 2017,2.000000,-6.000000,-24.000000,-15.000000,-11.000000,3.000000,-4.000000,-6.000000,10.375000,2.562500,1.500000,-0.069824,0.804688,0.586426
Sun May 14 14:43:45 2017,2.000000,-6.000000,-24.000000,-15.000000,-11.000000,3.000000,-4.000000,-6.000000,10.375000,2.562500,1.500000,-0.069824,0.804688,0.586426
Sun May 14 14:43:45 2017,-6.000000,-35.000000,-22.000000,-11.000000,3.000000,2.000000,-2.000000,-3.000000,10.375000,2.562500,1.500000,-0.069824,0.804688,0.586426
Sun May 14 14:43:45 2017,-6.000000,-35.000000,-22.000000,-11.000000,3.000000,2.000000,-2.000000,-3.000000,6.500000,1.250000,1.687500,-0.080078,0.795898,0.571777
Sun May 14 14:43:45 2017,-5.000000,-2.000000,18.000000,0.000000,-3.000000,-3.000000,-3.000000,-3.000000,6.500000,1.250000,1.687500,-0.080078,0.795898,0.571777
Sun May 14 14:43:45 2017,-5.000000,-2.000000,18.000000,0.000000,-3.000000,-3.000000,-3.000000,-3.000000,16.250000,2.187500,1.062500,-0.054199,0.788574,0.589355
Sun May 14 14:43:45 2017,-5.000000,-2.000000,18.000000,0.000000,-3.000000,-3.000000,-3.000000,-3.000000,16.250000,2.187500,1.062500,-0.054199,0.788574,0.589355
Sun May 14 14:43:45 2017,-5.000000,-2.000000,18.000000,0.000000,-3.000000,-3.000000,-3.000000,-3.000000,16.250000,2.187500,1.062500,-0.054199,0.788574,0.589355
Sun May 14 14:43:45 2017,-1.000000,0.000000,-20.000000,-7.000000,-6.000000,-8.000000,-10.000000,-7.000000,16.250000,2.187500,1.062500,-0.054199,0.788574,0.589355
Sun May 14 14:43:45 2017,-1.000000,0.000000,-20.000000,-7.000000,-6.000000,-8.000000,-10.000000,-7.000000,14.500000,2.812500,2.000000,-0.066895,0.799316,0.586426
Sun May 14 14:43:45 2017,-1.000000,0.000000,-20.000000,-7.000000,-6.000000,-8.000000,-10.000000,-7.000000,14.500000,2.812500,2.000000,-0.066895,0.799316,0.586426
Sun May 14 14:43:45 2017,-1.000000,0.000000,-20.000000,-7.000000,-6.000000,-8.000000,-10.000000,-7.000000,14.500000,2.812500,2.000000,-0.066895,0.799316,0.586426
Sun May 14 14:43:45 2017,-4.000000,-6.000000,-13.000000,-5.000000,-4.000000,5.000000,9.000000,-1.000000,14.500000,2.812500,2.000000,-0.066895,0.799316,0.586426
Sun May 14 14:43:45 2017,-4.000000,-6.000000,-13.000000,-5.000000,-4.000000,5.000000,9.000000,-1.000000,11.187500,1.375000,2.875000,-0.064941,0.793457,0.567383
Sun May 14 14:43:45 2017,-4.000000,-6.000000,-13.000000,-5.000000,-4.000000,5.000000,9.000000,-1.000000,11.187500,1.375000,2.875000,-0.064941,0.793457,0.567383
Sun May 14 14:43:45 2017,5.000000,-6.000000,-11.000000,-1.000000,-6.000000,-12.000000,-3.000000,-1.000000,11.187500,1.375000,2.875000,-0.064941,0.793457,0.567383
Sun May 14 14:43:45 2017,5.000000,-6.000000,-11.000000,-1.000000,-6.000000,-12.000000,-3.000000,-1.000000,12.437500,0.437500,1.187500,-0.060059,0.850586,0.554199
Sun May 14 14:43:45 2017,5.000000,-6.000000,-11.000000,-1.000000,-6.000000,-12.000000,-3.000000,-1.000000,12.437500,0.437500,1.187500,-0.060059,0.850586,0.554199
Sun May 14 14:43:45 2017,5.000000,-6.000000,-11.000000,-1.000000,-6.000000,-12.000000,-3.000000,-1.000000,12.437500,0.437500,1.187500,-0.060059,0.850586,0.554199
Sun May 14 14:43:45 2017,9.000000,15.000000,7.000000,-2.000000,-11.000000,-21.000000,-9.000000,2.000000,12.437500,0.437500,1.187500,-0.060059,0.850586,0.554199
Sun May 14 14:43:45 2017,9.000000,15.000000,7.000000,-2.000000,-11.000000,-21.000000,-9.000000,2.000000,6.875000,0.500000,2.500000,-0.068848,0.820312,0.554199
Sun May 14 14:43:45 2017,9.000000,15.000000,7.000000,-2.000000,-11.000000,-21.000000,-9.000000,2.000000,6.875000,0.500000,2.500000,-0.068848,0.820312,0.554199
Sun May 14 14:43:45 2017,9.000000,15.000000,7.000000,-2.000000,-11.000000,-21.000000,-9.000000,2.000000,6.875000,0.500000,2.500000,-0.068848,0.820312,0.554199
Sun May 14 14:43:45 2017,0.000000,-5.000000,0.000000,4.000000,5.000000,4.000000,6.000000,5.000000,6.875000,0.500000,2.500000,-0.068848,0.820312,0.554199
Sun May 14 14:43:45 2017,0.000000,-5.000000,0.000000,4.000000,5.000000,4.000000,6.000000,5.000000,-0.937500,-0.187500,3.750000,-0.062012,0.798828,0.577637
Sun May 14 14:43:46 2017,-5.000000,9.000000,-5.000000,0.000000,-5.000000,-5.000000,-4.000000,-2.000000,-0.937500,-0.187500,3.750000,-0.062012,0.798828,0.577637
Sun May 14 14:43:46 2017,-5.000000,9.000000,-5.000000,0.000000,-5.000000,-5.000000,-4.000000,-2.000000,-2.187500,-2.000000,2.937500,-0.055664,0.791016,0.558594
Sun May 14 14:43:46 2017,-5.000000,9.000000,-5.000000,0.000000,-5.000000,-5.000000,-4.000000,-2.000000,-2.187500,-2.000000,2.937500,-0.055664,0.791016,0.558594
Sun May 14 14:43:46 2017,-5.000000,9.000000,-5.000000,0.000000,-5.000000,-5.000000,-4.000000,-2.000000,-2.187500,-2.000000,2.937500,-0.055664,0.791016,0.558594
Sun May 14 14:43:46 2017,5.000000,-15.000000,5.000000,5.000000,6.000000,13.000000,13.000000,8.000000,-2.187500,-2.000000,2.937500,-0.055664,0.791016,0.558594
Sun May 14 14:43:46 2017,5.000000,-15.000000,5.000000,5.000000,6.000000,13.000000,13.000000,8.000000,-1.937500,-3.312500,0.812500,-0.066406,0.822266,0.554688
Sun May 14 14:43:46 2017,5.000000,-15.000000,5.000000,5.000000,6.000000,13.000000,13.000000,8.000000,-1.937500,-3.312500,0.812500,-0.066406,0.822266,0.554688
Sun May 14 14:43:46 2017,5.000000,-15.000000,5.000000,5.000000,6.000000,13.000000,13.000000,8.000000,-1.937500,-3.312500,0.812500,-0.066406,0.822266,0.554688
Sun May 14 14:43:46 2017,-14.000000,9.000000,0.000000,-3.000000,-7.000000,-2.000000,1.000000,7.000000,-1.937500,-3.312500,0.812500,-0.066406,0.822266,0.554688
Sun May 14 14:43:46 2017,-14.000000,9.000000,0.000000,-3.000000,-7.000000,-2.000000,1.000000,7.000000,-6.875000,-5.625000,-0.375000,-0.066895,0.806152,0.572266
Sun May 14 14:43:46 2017,-14.000000,9.000000,0.000000,-3.000000,-7.000000,-2.000000,1.000000,7.000000,-6.875000,-5.625000,-0.375000,-0.066895,0.806152,0.572266
Sun May 14 14:43:46 2017,-30.000000,-40.000000,-23.000000,-14.000000,-17.000000,-15.000000,-11.000000,-9.000000,-6.875000,-5.625000,-0.375000,-0.066895,0.806152,0.572266
Sun May 14 14:43:46 2017,-6.000000,-13.000000,-9.000000,0.000000,11.000000,21.000000,-1.000000,-1.000000,-11.687500,-7.062500,-0.812500,-0.070312,0.786133,0.580078
Sun May 14 14:43:46 2017,-6.000000,-13.000000,-9.000000,0.000000,11.000000,21.000000,-1.000000,-1.000000,-11.687500,-7.062500,-0.812500,-0.070312,0.786133,0.580078
Sun May 14 14:43:46 2017,-1.000000,5.000000,15.000000,13.000000,1.000000,-4.000000,-1.000000,-5.000000,-11.687500,-7.062500,-0.812500,-0.070312,0.786133,0.580078
Sun May 14 14:43:46 2017,-1.000000,5.000000,15.000000,13.000000,1.000000,-4.000000,-1.000000,-5.000000,-4.187500,-7.437500,-2.437500,-0.058105,0.755859,0.587402
Sun May 14 14:43:46 2017,-1.000000,5.000000,15.000000,13.000000,1.000000,-4.000000,-1.000000,-5.000000,-4.187500,-7.437500,-2.437500,-0.058105,0.755859,0.587402
Sun May 14 14:43:46 2017,-1.000000,5.000000,15.000000,13.000000,1.000000,-4.000000,-1.000000,-5.000000,-4.187500,-7.437500,-2.437500,-0.058105,0.755859,0.587402
Sun May 14 14:43:46 2017,9.000000,23.000000,-3.000000,-1.000000,-1.000000,-6.000000,-3.000000,0.000000,-4.187500,-7.437500,-2.437500,-0.058105,0.755859,0.587402
Sun May 14 14:43:46 2017,9.000000,23.000000,-3.000000,-1.000000,-1.000000,-6.000000,-3.000000,0.000000,-5.000000,-8.312500,-1.437500,-0.061035,0.772949,0.586426
Sun May 14 14:43:46 2017,9.000000,23.000000,-3.000000,-1.000000,-1.000000,-6.000000,-3.000000,0.000000,-5.000000,-8.312500,-1.437500,-0.061035,0.772949,0.586426
Sun May 14 14:43:46 2017,0.000000,5.000000,-12.000000,-9.000000,-4.000000,-3.000000,0.000000,2.000000,-5.000000,-8.312500,-1.437500,-0.061035,0.772949,0.586426
Sun May 14 14:43:46 2017,0.000000,5.000000,-12.000000,-9.000000,-4.000000,-3.000000,0.000000,2.000000,6.687500,-6.500000,-0.500000,-0.018555,0.789062,0.572266
Sun May 14 14:43:46 2017,0.000000,5.000000,-12.000000,-9.000000,-4.000000,-3.000000,0.000000,2.000000,6.687500,-6.500000,-0.500000,-0.018555,0.789062,0.572266
Sun May 14 14:43:46 2017,-21.000000,-4.000000,-4.000000,-9.000000,-5.000000,-5.000000,-9.000000,-8.000000,6.687500,-6.500000,-0.500000,-0.018555,0.789062,0.572266
Sun May 14 14:43:46 2017,-21.000000,-4.000000,-4.000000,-9.000000,-5.000000,-5.000000,-9.000000,-8.000000,6.687500,-6.500000,-0.500000,-0.018555,0.789062,0.572266
Sun May 14 14:43:46 2017,-21.000000,-4.000000,-4.000000,-9.000000,-5.000000,-5.000000,-9.000000,-8.000000,-2.625000,-7.375000,-0.625000,-0.034180,0.872070,0.553223
Sun May 14 14:43:46 2017,-21.000000,-4.000000,-4.000000,-9.000000,-5.000000,-5.000000,-9.000000,-8.000000,-2.625000,-7.375000,-0.625000,-0.034180,0.872070,0.553223
Sun May 14 14:43:46 2017,6.000000,5.000000,4.000000,-1.000000,-3.000000,-3.000000,3.000000,1.000000,-2.625000,-7.375000,-0.625000,-0.034180,0.872070,0.553223
Sun May 14 14:43:46 2017,-2.000000,16.000000,17.000000,3.000000,-1.000000,3.000000,13.000000,0.000000,-2.625000,-7.375000,-0.625000,-0.034180,0.872070,0.553223
Sun May 14 14:43:46 2017,-2.000000,16.000000,17.000000,3.000000,-1.000000,3.000000,13.000000,0.000000,-14.250000,-6.312500,1.812500,-0.059570,0.841309,0.583008
Sun May 14 14:43:46 2017,-1.000000,-31.000000,-15.000000,-1.000000,-2.000000,-1.000000,4.000000,2.000000,-14.250000,-6.312500,1.812500,-0.059570,0.841309,0.583008
Sun May 14 14:43:46 2017,-1.000000,-31.000000,-15.000000,-1.000000,-2.000000,-1.000000,4.000000,2.000000,-20.250000,-7.500000,-1.125000,-0.048340,0.790039,0.566895
Sun May 14 14:43:46 2017,-1.000000,-31.000000,-15.000000,-1.000000,-2.000000,-1.000000,4.000000,2.000000,-20.250000,-7.500000,-1.125000,-0.048340,0.790039,0.566895
Sun May 14 14:43:46 2017,-1.000000,-31.000000,-15.000000,-1.000000,-2.000000,-1.000000,4.000000,2.000000,-20.250000,-7.500000,-1.125000,-0.048340,0.790039,0.566895
Sun May 14 14:43:46 2017,-1.000000,2.000000,-7.000000,-4.000000,-7.000000,-9.000000,-8.000000,-8.000000,-20.250000,-7.500000,-1.125000,-0.048340,0.790039,0.566895
Sun May 14 14:43:46 2017,-1.000000,2.000000,-7.000000,-4.000000,-7.000000,-9.000000,-8.000000,-8.000000,-30.500000,-8.750000,-0.625000,-0.033691,0.771484,0.554688
Sun May 14 14:43:46 2017,-1.000000,2.000000,-7.000000,-4.000000,-7.000000,-9.000000,-8.000000,-8.000000,-30.500000,-8.750000,-0.625000,-0.033691,0.771484,0.554688
Sun May 14 14:43:46 2017,-1.000000,2.000000,-7.000000,-4.000000,-7.000000,-9.000000,-8.000000,-8.000000,-30.500000,-8.750000,-0.625000,-0.033691,0.771484,0.554688
Sun May 14 14:43:46 2017,9.000000,4.000000,24.000000,3.000000,-6.000000,-10.000000,-9.000000,-3.000000,-30.500000,-8.750000,-0.625000,-0.033691,0.771484,0.554688
Sun May 14 14:43:46 2017,9.000000,4.000000,24.000000,3.000000,-6.000000,-10.000000,-9.000000,-3.000000,-15.875000,-4.125000,-0.687500,-0.006836,0.733887,0.605469
Sun May 14 14:43:46 2017,9.000000,4.000000,24.000000,3.000000,-6.000000,-10.000000,-9.000000,-3.000000,-15.875000,-4.125000,-0.687500,-0.006836,0.733887,0.605469
Sun May 14 14:43:46 2017,-11.000000,-58.000000,-12.000000,-2.000000,5.000000,6.000000,6.000000,1.000000,-15.875000,-4.125000,-0.687500,-0.006836,0.733887,0.605469
Sun May 14 14:43:46 2017,-6.000000,-30.000000,-19.000000,-9.000000,-3.000000,-2.000000,-8.000000,-3.000000,-6.250000,-2.125000,2.000000,-0.007324,0.741211,0.602051
Sun May 14 14:43:46 2017,-6.000000,-30.000000,-19.000000,-9.000000,-3.000000,-2.000000,-8.000000,-3.000000,-6.250000,-2.125000,2.000000,-0.007324,0.741211,0.602051
Sun May 14 14:43:46 2017,-6.000000,-30.000000,-19.000000,-9.000000,-3.000000,-2.000000,-8.000000,-3.000000,-6.250000,-2.125000,2.000000,-0.007324,0.741211,0.602051
Sun May 14 14:43:46 2017,-2.000000,-9.000000,-8.000000,-4.000000,1.000000,1.000000,-2.000000,-1.000000,-6.250000,-2.125000,2.000000,-0.007324,0.741211,0.602051
Sun May 14 14:43:46 2017,-2.000000,-9.000000,-8.000000,-4.000000,1.000000,1.000000,-2.000000,-1.000000,-0.625000,1.500000,1.750000,-0.036133,0.724121,0.608398
Sun May 14 14:43:46 2017,-2.000000,-9.000000,-8.000000,-4.000000,1.000000,1.000000,-2.000000,-1.000000,-0.625000,1.500000,1.750000,-0.036133,0.724121,0.608398
Sun May 14 14:43:46 2017,-2.000000,-9.000000,-8.000000,-4.000000,1.000000,1.000000,-2.000000,-1.000000,-0.625000,1.500000,1.750000,-0.036133,0.724121,0.608398
Sun May 14 14:43:46 2017,1.000000,3.000000,15.000000,5.000000,5.000000,4.000000,-1.000000,0.000000,-0.625000,1.500000,1.750000,-0.036133,0.724121,0.608398
Sun May 14 14:43:46 2017,1.000000,3.000000,15.000000,5.000000,5.000000,4.000000,-1.000000,0.000000,2.062500,2.437500,0.687500,-0.052246,0.754883,0.597656
Sun May 14 14:43:46 2017,-6.000000,22.000000,3.000000,-4.000000,-3.000000,-1.000000,-3.000000,0.000000,2.062500,2.437500,0.687500,-0.052246,0.754883,0.597656
Sun May 14 14:43:46 2017,3.000000,10.000000,-13.000000,-9.000000,-5.000000,-1.000000,3.000000,-5.000000,2.062500,2.437500,0.687500,-0.052246,0.754883,0.597656
Sun May 14 14:43:46 2017,3.000000,10.000000,-13.000000,-9.000000,-5.000000,-1.000000,3.000000,-5.000000,4.312500,2.625000,1.937500,-0.047363,0.782715,0.598633
Sun May 14 14:43:46 2017,3.000000,10.000000,-13.000000,-9.000000,-5.000000,-1.000000,3.000000,-5.000000,4.312500,2.625000,1.937500,-0.047363,0.782715,0.598633
Sun May 14 14:43:46 2017,4.000000,-1.000000,4.000000,5.000000,3.000000,2.000000,-1.000000,1.000000,4.312500,2.625000,1.937500,-0.047363,0.782715,0.598633
Sun May 14 14:43:46 2017,4.000000,-1.000000,4.000000,5.000000,3.000000,2.000000,-1.000000,1.000000,2.437500,1.750000,0.500000,-0.036621,0.780273,0.589844
Sun May 14 14:43:46 2017,4.000000,-1.000000,4.000000,5.000000,3.000000,2.000000,-1.000000,1.000000,2.437500,1.750000,0.500000,-0.036621,0.780273,0.589844
Sun May 14 14:43:46 2017,4.000000,-1.000000,4.000000,5.000000,3.000000,2.000000,-1.000000,1.000000,2.437500,1.750000,0.500000,-0.036621,0.780273,0.589844
Sun May 14 14:43:46 2017,1.000000,-19.000000,-12.000000,-5.000000,-2.000000,-3.000000,0.000000,-4.000000,2.437500,1.750000,0.500000,-0.036621,0.780273,0.589844
Sun May 14 14:43:46 2017,1.000000,-19.000000,-12.000000,-5.000000,-2.000000,-3.000000,0.000000,-4.000000,2.562500,1.187500,1.500000,-0.047363,0.782715,0.600586
Sun May 14 14:43:46 2017,6.000000,23.000000,-1.000000,-3.000000,-2.000000,1.000000,1.000000,-3.000000,2.562500,1.187500,1.500000,-0.047363,0.782715,0.600586
Sun May 14 14:43:46 2017,-6.000000,-18.000000,-8.000000,-3.000000,-2.000000,-3.000000,-5.000000,-2.000000,2.562500,1.187500,1.500000,-0.047363,0.782715,0.600586
Sun May 14 14:43:46 2017,-6.000000,-18.000000,-8.000000,-3.000000,-2.000000,-3.000000,-5.000000,-2.000000,3.937500,1.937500,1.000000,-0.046875,0.789062,0.605469
Sun May 14 14:43:46 2017,-6.000000,-18.000000,-8.000000,-3.000000,-2.000000,-3.000000,-5.000000,-2.000000,3.937500,1.937500,1.000000,-0.046875,0.789062,0.605469
Sun May 14 14:43:46 2017,-7.000000,-2.000000,2.000000,-2.000000,-2.000000,1.000000,-1.000000,-2.000000,3.937500,1.937500,1.000000,-0.046875,0.789062,0.605469
Sun May 14 14:43:46 2017,-7.000000,-2.000000,2.000000,-2.000000,-2.000000,1.000000,-1.000000,-2.000000,1.250000,1.875000,2.187500,-0.046875,0.774902,0.599609
Sun May 14 14:43:46 2017,-7.000000,-2.000000,2.000000,-2.000000,-2.000000,1.000000,-1.000000,-2.000000,1.250000,1.875000,2.187500,-0.046875,0.774902,0.599609
Sun May 14 14:43:46 2017,-7.000000,-2.000000,2.000000,-2.000000,-2.000000,1.000000,-1.000000,-2.000000,1.250000,1.875000,2.187500,-0.046875,0.774902,0.599609
Sun May 14 14:43:46 2017,24.000000,24.000000,3.000000,-1.000000,-1.000000,-1.000000,-1.000000,1.000000,1.250000,1.875000,2.187500,-0.046875,0.774902,0.599609
Sun May 14 14:43:46 2017,24.000000,24.000000,3.000000,-1.000000,-1.000000,-1.000000,-1.000000,1.000000,2.312500,0.750000,2.687500,-0.046875,0.767090,0.597168
Sun May 14 14:43:46 2017,3.000000,15.000000,6.000000,0.000000,0.000000,2.000000,1.000000,2.000000,2.312500,0.750000,2.687500,-0.046875,0.767090,0.597168
Sun May 14 14:43:46 2017,-6.000000,-5.000000,-4.000000,1.000000,0.000000,-1.000000,-2.000000,0.000000,2.312500,0.750000,2.687500,-0.046875,0.767090,0.597168
Sun May 14 14:43:46 2017,-6.000000,-5.000000,-4.000000,1.000000,0.000000,-1.000000,-2.000000,0.000000,2.500000,0.625000,2.375000,-0.041016,0.764160,0.594238
Sun May 14 14:43:46 2017,-6.000000,-5.000000,-4.000000,1.000000,0.000000,-1.000000,-2.000000,0.000000,2.500000,0.625000,2.375000,-0.041016,0.764160,0.594238
Sun May 14 14:43:46 2017,1.000000,-6.000000,-7.000000,-3.000000,-5.000000,-2.000000,-2.000000,-3.000000,2.500000,0.625000,2.375000,-0.041016,0.764160,0.594238
Sun May 14 14:43:46 2017,1.000000,-6.000000,-7.000000,-3.000000,-5.000000,-2.000000,-2.000000,-3.000000,8.500000,1.312500,1.125000,-0.044434,0.756348,0.611328
Sun May 14 14:43:46 2017,1.000000,-6.000000,-7.000000,-3.000000,-5.000000,-2.000000,-2.000000,-3.000000,8.500000,1.312500,1.125000,-0.044434,0.756348,0.611328
Sun May 14 14:43:46 2017,1.000000,-6.000000,-7.000000,-3.000000,-5.000000,-2.000000,-2.000000,-3.000000,8.500000,1.312500,1.125000,-0.044434,0.756348,0.611328
Sun May 14 14:43:46 2017,-3.000000,3.000000,-1.000000,-6.000000,-1.000000,1.000000,1.000000,0.000000,8.500000,1.312500,1.125000,-0.044434,0.756348,0.611328
Sun May 14 14:43:46 2017,-3.000000,3.000000,-1.000000,-6.000000,-1.000000,1.000000,1.000000,0.000000,13.750000,2.187500,0.625000,-0.041504,0.801270,0.601562
Sun May 14 14:43:46 2017,0.000000,-5.000000,14.000000,2.000000,1.000000,-2.000000,-1.000000,-1.000000,13.750000,2.187500,0.625000,-0.041504,0.801270,0.601562
Sun May 14 14:43:46 2017,0.000000,-5.000000,14.000000,2.000000,1.000000,-2.000000,-1.000000,-1.000000,13.750000,2.187500,0.625000,-0.041504,0.801270,0.601562
Sun May 14 14:43:46 2017,6.000000,22.000000,5.000000,2.000000,1.000000,-1.000000,0.000000,1.000000,7.187500,1.125000,0.687500,-0.050781,0.808105,0.589844
Sun May 14 14:43:46 2017,6.000000,22.000000,5.000000,2.000000,1.000000,-1.000000,0.000000,1.000000,7.187500,1.125000,0.687500,-0.050781,0.808105,0.589844
Sun May 14 14:43:46 2017,-10.000000,-2.000000,21.000000,9.000000,2.000000,3.000000,10.000000,1.000000,7.187500,1.125000,0.687500,-0.050781,0.808105,0.589844
Sun May 14 14:43:46 2017,-10.000000,-2.000000,21.000000,9.000000,2.000000,3.000000,10.000000,1.000000,2.625000,-0.437500,1.000000,-0.049316,0.794434,0.601562
Sun May 14 14:43:46 2017,-10.000000,-2.000000,21.000000,9.000000,2.000000,3.000000,10.000000,1.000000,2.625000,-0.437500,1.000000,-0.049316,0.794434,0.601562
Sun May 14 14:43:46 2017,-10.000000,-2.000000,21.000000,9.000000,2.000000,3.000000,10.000000,1.000000,2.625000,-0.437500,1.000000,-0.049316,0.794434,0.601562
Sun May 14 14:43:46 2017,5.000000,6.000000,-15.000000,-3.000000,0.000000,-5.000000,-9.000000,3.000000,2.625000,-0.437500,1.000000,-0.049316,0.794434,0.601562
Sun May 14 14:43:46 2017,5.000000,6.000000,-15.000000,-3.000000,0.000000,-5.000000,-9.000000,3.000000,3.312500,-1.375000,-0.062500,-0.045898,0.808594,0.586914
Sun May 14 14:43:46 2017,5.000000,6.000000,-15.000000,-3.000000,0.000000,-5.000000,-9.000000,3.000000,3.312500,-1.375000,-0.062500,-0.045898,0.808594,0.586914
Sun May 14 14:43:46 2017,5.000000,6.000000,-15.000000,-3.000000,0.000000,-5.000000,-9.000000,3.000000,3.312500,-1.375000,-0.062500,-0.045898,0.808594,0.586914
Sun May 14 14:43:46 2017,-3.000000,-6.000000,-24.000000,-8.000000,-4.000000,-2.000000,-2.000000,-2.000000,3.312500,-1.375000,-0.062500,-0.045898,0.808594,0.586914
Sun May 14 14:43:46 2017,14.000000,15.000000,3.000000,-3.000000,-3.000000,-7.000000,-8.000000,-2.000000,-2.250000,-2.500000,0.312500,-0.050781,0.796387,0.586426
Sun May 14 14:43:46 2017,14.000000,15.000000,3.000000,-3.000000,-3.000000,-7.000000,-8.000000,-2.000000,-2.250000,-2.500000,0.312500,-0.050781,0.796387,0.586426
Sun May 14 14:43:46 2017,-4.000000,11.000000,5.000000,2.000000,3.000000,4.000000,7.000000,1.000000,-2.250000,-2.500000,0.312500,-0.050781,0.796387,0.586426
Sun May 14 14:43:46 2017,-4.000000,11.000000,5.000000,2.000000,3.000000,4.000000,7.000000,1.000000,-3.562500,-2.937500,-1.625000,-0.038574,0.794434,0.563965
Sun May 14 14:43:46 2017,-4.000000,11.000000,5.000000,2.000000,3.000000,4.000000,7.000000,1.000000,-3.562500,-2.937500,-1.625000,-0.038574,0.794434,0.563965
Sun May 14 14:43:46 2017,-4.000000,11.000000,5.000000,2.000000,3.000000,4.000000,7.000000,1.000000,-3.562500,-2.937500,-1.625000,-0.038574,0.794434,0.563965
Sun May 14 14:43:46 2017,-2.000000,2.000000,4.000000,11.000000,4.000000,1.000000,0.000000,-1.000000,-3.562500,-2.937500,-1.625000,-0.038574,0.794434,0.563965
Sun May 14 14:43:46 2017,-2.000000,2.000000,4.000000,11.000000,4.000000,1.000000,0.000000,-1.000000,-9.437500,-3.187500,-1.625000,-0.043945,0.782227,0.563477
Sun May 14 14:43:46 2017,-3.000000,8.000000,9.000000,-1.000000,2.000000,0.000000,-1.000000,2.000000,-9.437500,-3.187500,-1.625000,-0.043945,0.782227,0.563477
Sun May 14 14:43:46 2017,-3.000000,8.000000,9.000000,-1.000000,2.000000,0.000000,-1.000000,2.000000,-9.437500,-3.187500,-1.625000,-0.043945,0.782227,0.563477
Sun May 14 14:43:46 2017,-14.000000,-16.000000,-15.000000,-10.000000,-5.000000,-2.000000,-3.000000,-4.000000,-5.562500,-1.750000,0.250000,-0.035156,0.781738,0.577637
Sun May 14 14:43:46 2017,-14.000000,-16.000000,-15.000000,-10.000000,-5.000000,-2.000000,-3.000000,-4.000000,-5.562500,-1.750000,0.250000,-0.035156,0.781738,0.577637
Sun May 14 14:43:46 2017,3.000000,6.000000,2.000000,9.000000,3.000000,0.000000,-1.000000,-1.000000,-5.562500,-1.750000,0.250000,-0.035156,0.781738,0.577637
Sun May 14 14:43:46 2017,3.000000,6.000000,2.000000,9.000000,3.000000,0.000000,-1.000000,-1.000000,-5.562500,-1.750000,0.250000,-0.035156,0.781738,0.577637
Sun May 14 14:43:46 2017,3.000000,6.000000,2.000000,9.000000,3.000000,0.000000,-1.000000,-1.000000,-7.875000,-1.187500,2.812500,-0.022461,0.784668,0.583496
Sun May 14 14:43:46 2017,3.000000,6.000000,2.000000,9.000000,3.000000,0.000000,-1.000000,-1.000000,-7.875000,-1.187500,2.812500,-0.022461,0.784668,0.583496
Sun May 14 14:43:46 2017,7.000000,12.000000,2.000000,-5.000000,-3.000000,-1.000000,-1.000000,-1.000000,-7.875000,-1.187500,2.812500,-0.022461,0.784668,0.583496
Sun May 14 14:43:46 2017,7.000000,12.000000,2.000000,-5.000000,-3.000000,-1.000000,-1.000000,-1.000000,-7.875000,-1.187500,2.812500,-0.022461,0.784668,0.583496
Sun May 14 14:43:46 2017,7.000000,12.000000,2.000000,-5.000000,-3.000000,-1.000000,-1.000000,-1.000000,-7.687500,0.125000,2.250000,-0.031250,0.735840,0.596191
Sun May 14 14:43:46 2017,7.000000,12.000000,2.000000,-5.000000,-3.000000,-1.000000,-1.000000,-1.000000,-7.687500,0.125000,2.250000,-0.031250,0.735840,0.596191
Sun May 14 14:43:46 2017,7.000000,12.000000,2.000000,-5.000000,-3.000000,-1.000000,-1.000000,-1.000000,-7.687500,0.125000,2.250000,-0.031250,0.735840,0.596191
Sun May 14 14:43:46 2017,7.000000,12.000000,2.000000,-5.000000,-3.000000,-1.000000,-1.000000,-1.000000,-7.687500,0.125000,2.250000,-0.031250,0.735840,0.596191
Sun May 14 14:43:46 2017,-4.000000,3.000000,-2.000000,-3.000000,-1.000000,0.000000,0.000000,-2.000000,2.875000,1.875000,1.375000,-0.047852,0.738281,0.602539
Sun May 14 14:43:46 2017,-3.000000,-13.000000,2.000000,-3.000000,-1.000000,-1.000000,0.000000,0.000000,2.875000,1.875000,1.375000,-0.047852,0.738281,0.602539
Sun May 14 14:43:46 2017,-3.000000,-13.000000,2.000000,-3.000000,-1.000000,-1.000000,0.000000,0.000000,10.500000,1.750000,1.937500,-0.055664,0.778320,0.598633
Sun May 14 14:43:46 2017,-3.000000,-13.000000,2.000000,-3.000000,-1.000000,-1.000000,0.000000,0.000000,10.500000,1.750000,1.937500,-0.055664,0.778320,0.598633
Sun May 14 14:43:46 2017,-3.000000,-13.000000,2.000000,-3.000000,-1.000000,-1.000000,0.000000,0.000000,10.500000,1.750000,1.937500,-0.055664,0.778320,0.598633
Sun May 14 14:43:46 2017,5.000000,-5.000000,-5.000000,0.000000,-3.000000,-3.000000,0.000000,-2.000000,10.500000,1.750000,1.937500,-0.055664,0.778320,0.598633
Sun May 14 14:43:46 2017,5.000000,-5.000000,-5.000000,0.000000,-3.000000,-3.000000,0.000000,-2.000000,10.687500,2.312500,1.625000,-0.036133,0.786621,0.599609
Sun May 14 14:43:46 2017,5.000000,-5.000000,-5.000000,0.000000,-3.000000,-3.000000,0.000000,-2.000000,10.687500,2.312500,1.625000,-0.036133,0.786621,0.599609
Sun May 14 14:43:46 2017,5.000000,-5.000000,-5.000000,0.000000,-3.000000,-3.000000,0.000000,-2.000000,10.687500,2.312500,1.625000,-0.036133,0.786621,0.599609
Sun May 14 14:43:46 2017,-7.000000,-18.000000,-4.000000,-6.000000,-4.000000,-1.000000,-2.000000,-1.000000,9.062500,3.000000,1.812500,-0.035645,0.749512,0.601074
Sun May 14 14:43:46 2017,-7.000000,-18.000000,-4.000000,-6.000000,-4.000000,-1.000000,-2.000000,-1.000000,9.062500,3.000000,1.812500,-0.035645,0.749512,0.601074
Sun May 14 14:43:46 2017,-1.000000,-4.000000,1.000000,1.000000,-4.000000,-2.000000,-1.000000,-7.000000,9.062500,3.000000,1.812500,-0.035645,0.749512,0.601074
Sun May 14 14:43:46 2017,-1.000000,-4.000000,1.000000,1.000000,-4.000000,-2.000000,-1.000000,-7.000000,15.625000,3.000000,0.125000,-0.041992,0.751953,0.582520
Sun May 14 14:43:46 2017,-1.000000,-4.000000,1.000000,1.000000,-4.000000,-2.000000,-1.000000,-7.000000,15.625000,3.000000,0.125000,-0.041992,0.751953,0.582520
Sun May 14 14:43:46 2017,-1.000000,-4.000000,1.000000,1.000000,-4.000000,-2.000000,-1.000000,-7.000000,15.625000,3.000000,0.125000,-0.041992,0.751953,0.582520
Sun May 14 14:43:46 2017,-6.000000,-8.000000,0.000000,1.000000,-6.000000,-5.000000,-5.000000,-5.000000,15.625000,3.000000,0.125000,-0.041992,0.751953,0.582520
Sun May 14 14:43:46 2017,-6.000000,-8.000000,0.000000,1.000000,-6.000000,-5.000000,-5.000000,-5.000000,22.875000,6.000000,0.625000,-0.030762,0.812988,0.577148
Sun May 14 14:43:46 2017,-6.000000,-8.000000,0.000000,1.000000,-6.000000,-5.000000,-5.000000,-5.000000,22.875000,6.000000,0.625000,-0.030762,0.812988,0.577148
Sun May 14 14:43:46 2017,-7.000000,10.000000,18.000000,2.000000,-7.000000,0.000000,-4.000000,-4.000000,22.875000,6.000000,0.625000,-0.030762,0.812988,0.577148
Sun May 14 14:43:46 2017,4.000000,-7.000000,-4.000000,6.000000,23.000000,12.000000,3.000000,3.000000,24.625000,6.250000,1.312500,-0.041504,0.849121,0.552246
Sun May 14 14:43:46 2017,4.000000,-7.000000,-4.000000,6.000000,23.000000,12.000000,3.000000,3.000000,24.625000,6.250000,1.312500,-0.041504,0.849121,0.552246
Sun May 14 14:43:46 2017,-11.000000,-9.000000,-12.000000,-7.000000,-10.000000,-9.000000,-5.000000,-3.000000,24.625000,6.250000,1.312500,-0.041504,0.849121,0.552246
Sun May 14 14:43:46 2017,-11.000000,-9.000000,-12.000000,-7.000000,-10.000000,-9.000000,-5.000000,-3.000000,22.500000,5.562500,1.062500,-0.055664,0.809570,0.565918
Sun May 14 14:43:46 2017,-11.000000,-9.000000,-12.000000,-7.000000,-10.000000,-9.000000,-5.000000,-3.000000,22.500000,5.562500,1.062500,-0.055664,0.809570,0.565918
Sun May 14 14:43:46 2017,-11.000000,-9.000000,-12.000000,-7.000000,-10.000000,-9.000000,-5.000000,-3.000000,22.500000,5.562500,1.062500,-0.055664,0.809570,0.565918
Sun May 14 14:43:46 2017,2.000000,3.000000,-7.000000,-7.000000,-7.000000,-4.000000,-4.000000,-1.000000,22.500000,5.562500,1.062500,-0.055664,0.809570,0.565918
Sun May 14 14:43:46 2017,2.000000,3.000000,-7.000000,-7.000000,-7.000000,-4.000000,-4.000000,-1.000000,8.687500,2.187500,-1.187500,-0.060059,0.794922,0.583496
Sun May 14 14:43:46 2017,2.000000,3.000000,-7.000000,-7.000000,-7.000000,-4.000000,-4.000000,-1.000000,8.687500,2.187500,-1.187500,-0.060059,0.794922,0.583496
Sun May 14 14:43:46 2017,2.000000,3.000000,-7.000000,-7.000000,-7.000000,-4.000000,-4.000000,-1.000000,8.687500,2.187500,-1.187500,-0.060059,0.794922,0.583496
Sun May 14 14:43:46 2017,-14.000000,5.000000,-1.000000,-3.000000,7.000000,12.000000,-13.000000,-5.000000,8.687500,2.187500,-1.187500,-0.060059,0.794922,0.583496
Sun May 14 14:43:46 2017,-14.000000,5.000000,-1.000000,-3.000000,7.000000,12.000000,-13.000000,-5.000000,10.062500,2.500000,-3.187500,-0.041504,0.787109,0.542969
Sun May 14 14:43:46 2017,2.000000,11.000000,2.000000,-3.000000,-15.000000,-7.000000,-1.000000,1.000000,10.062500,2.500000,-3.187500,-0.041504,0.787109,0.542969
Sun May 14 14:43:46 2017,-5.000000,-24.000000,-8.000000,-2.000000,7.000000,9.000000,9.000000,3.000000,10.062500,2.500000,-3.187500,-0.041504,0.787109,0.542969
Sun May 14 14:43:46 2017,-5.000000,-24.000000,-8.000000,-2.000000,7.000000,9.000000,9.000000,3.000000,9.875000,2.125000,-4.062500,-0.043457,0.843262,0.537598
Sun May 14 14:43:46 2017,-5.000000,-24.000000,-8.000000,-2.000000,7.000000,9.000000,9.000000,3.000000,9.875000,2.125000,-4.062500,-0.043457,0.843262,0.537598
Sun May 14 14:43:46 2017,-7.000000,-9.000000,-11.000000,-6.000000,-8.000000,-12.000000,-4.000000,-3.000000,9.875000,2.125000,-4.062500,-0.043457,0.843262,0.537598
Sun May 14 14:43:46 2017,-7.000000,-9.000000,-11.000000,-6.000000,-8.000000,-12.000000,-4.000000,-3.000000,9.875000,2.125000,-4.062500,-0.043457,0.843262,0.537598
Sun May 14 14:43:46 2017,-7.000000,-9.000000,-11.000000,-6.000000,-8.000000,-12.000000,-4.000000,-3.000000,8.562500,3.250000,0.250000,-0.063477,0.825195,0.553223
Sun May 14 14:43:46 2017,-7.000000,-9.000000,-11.000000,-6.000000,-8.000000,-12.000000,-4.000000,-3.000000,8.562500,3.250000,0.250000,-0.063477,0.825195,0.553223
Sun May 14 14:43:46 2017,2.000000,12.000000,12.000000,3.000000,4.000000,0.000000,0.000000,2.000000,8.562500,3.250000,0.250000,-0.063477,0.825195,0.553223
Sun May 14 14:43:46 2017,10.000000,33.000000,18.000000,14.000000,4.000000,0.000000,1.000000,2.000000,4.000000,0.625000,3.875000,-0.055664,0.814453,0.578613
Sun May 14 14:43:46 2017,10.000000,33.000000,18.000000,14.000000,4.000000,0.000000,1.000000,2.000000,4.000000,0.625000,3.875000,-0.055664,0.814453,0.578613
Sun May 14 14:43:46 2017,-5.000000,-9.000000,-9.000000,-4.000000,-3.000000,0.000000,1.000000,-5.000000,4.000000,0.625000,3.875000,-0.055664,0.814453,0.578613
Sun May 14 14:43:46 2017,-5.000000,-9.000000,-9.000000,-4.000000,-3.000000,0.000000,1.000000,-5.000000,2.187500,0.187500,2.875000,-0.039551,0.796875,0.552246
Sun May 14 14:43:46 2017,-5.000000,-9.000000,-9.000000,-4.000000,-3.000000,0.000000,1.000000,-5.000000,2.187500,0.187500,2.875000,-0.039551,0.796875,0.552246
Sun May 14 14:43:46 2017,-5.000000,-9.000000,-9.000000,-4.000000,-3.000000,0.000000,1.000000,-5.000000,2.187500,0.187500,2.875000,-0.039551,0.796875,0.552246
Sun May 14 14:43:46 2017,-1.000000,10.000000,7.000000,-4.000000,-15.000000,-13.000000,-4.000000,-1.000000,2.187500,0.187500,2.875000,-0.039551,0.796875,0.552246
Sun May 14 14:43:46 2017,-1.000000,10.000000,7.000000,-4.000000,-15.000000,-13.000000,-4.000000,-1.000000,8.812500,1.125000,1.375000,-0.040039,0.808105,0.541504
Sun May 14 14:43:46 2017,-1.000000,10.000000,7.000000,-4.000000,-15.000000,-13.000000,-4.000000,-1.000000,8.812500,1.125000,1.375000,-0.040039,0.808105,0.541504
Sun May 14 14:43:46 2017,-1.000000,10.000000,7.000000,-4.000000,-15.000000,-13.000000,-4.000000,-1.000000,8.812500,1.125000,1.375000,-0.040039,0.808105,0.541504
Sun May 14 14:43:46 2017,8.000000,0.000000,4.000000,4.000000,-5.000000,-3.000000,-2.000000,2.000000,16.062500,3.937500,1.312500,-0.041992,0.873535,0.531738
Sun May 14 14:43:46 2017,8.000000,0.000000,4.000000,4.000000,-5.000000,-3.000000,-2.000000,2.000000,16.062500,3.937500,1.312500,-0.041992,0.873535,0.531738
Sun May 14 14:43:46 2017,8.000000,0.000000,4.000000,4.000000,-5.000000,-3.000000,-2.000000,2.000000,16.062500,3.937500,1.312500,-0.041992,0.873535,0.531738
Sun May 14 14:43:46 2017,-7.000000,-16.000000,-1.000000,0.000000,7.000000,-5.000000,0.000000,-3.000000,16.062500,3.937500,1.312500,-0.041992,0.873535,0.531738
Sun May 14 14:43:46 2017,-7.000000,-16.000000,-1.000000,0.000000,7.000000,-5.000000,0.000000,-3.000000,3.562500,1.625000,0.500000,-0.073242,0.837891,0.536133
Sun May 14 14:43:46 2017,-7.000000,-16.000000,-1.000000,0.000000,7.000000,-5.000000,0.000000,-3.000000,3.562500,1.625000,0.500000,-0.073242,0.837891,0.536133
Sun May 14 14:43:47 2017,18.000000,24.000000,4.000000,2.000000,12.000000,16.000000,8.000000,16.000000,3.562500,1.625000,0.500000,-0.073242,0.837891,0.536133
Sun May 14 14:43:47 2017,7.000000,20.000000,7.000000,2.000000,3.000000,1.000000,11.000000,16.000000,3.562500,1.625000,0.500000,-0.073242,0.837891,0.536133
Sun May 14 14:43:47 2017,7.000000,20.000000,7.000000,2.000000,3.000000,1.000000,11.000000,16.000000,-3.625000,1.500000,1.937500,-0.051758,0.844727,0.554199
Sun May 14 14:43:47 2017,7.000000,20.000000,7.000000,2.000000,3.000000,1.000000,11.000000,16.000000,-3.625000,1.500000,1.937500,-0.051758,0.844727,0.554199
Sun May 14 14:43:47 2017,-2.000000,10.000000,6.000000,-2.000000,-3.000000,-2.000000,8.000000,-3.000000,-3.625000,1.500000,1.937500,-0.051758,0.844727,0.554199
Sun May 14 14:43:47 2017,-1.000000,-5.000000,-10.000000,-2.000000,-4.000000,-6.000000,-14.000000,-9.000000,-5.562500,-0.812500,-0.062500,-0.066406,0.830078,0.525391
Sun May 14 14:43:47 2017,-1.000000,-5.000000,-10.000000,-2.000000,-4.000000,-6.000000,-14.000000,-9.000000,-5.562500,-0.812500,-0.062500,-0.066406,0.830078,0.525391
Sun May 14 14:43:47 2017,-14.000000,-11.000000,-9.000000,-9.000000,-4.000000,3.000000,4.000000,-3.000000,-5.562500,-0.812500,-0.062500,-0.066406,0.830078,0.525391
Sun May 14 14:43:47 2017,-14.000000,-11.000000,-9.000000,-9.000000,-4.000000,3.000000,4.000000,-3.000000,-8.500000,-1.937500,-2.312500,-0.046875,0.815918,0.537598
Sun May 14 14:43:47 2017,-14.000000,-11.000000,-9.000000,-9.000000,-4.000000,3.000000,4.000000,-3.000000,-8.500000,-1.937500,-2.312500,-0.046875,0.815918,0.537598
Sun May 14 14:43:47 2017,-14.000000,-11.000000,-9.000000,-9.000000,-4.000000,3.000000,4.000000,-3.000000,-8.500000,-1.937500,-2.312500,-0.046875,0.815918,0.537598
Sun May 14 14:43:47 2017,-1.000000,-6.000000,-2.000000,-1.000000,-8.000000,-8.000000,2.000000,2.000000,-8.500000,-1.937500,-2.312500,-0.046875,0.815918,0.537598
Sun May 14 14:43:47 2017,-1.000000,-6.000000,-2.000000,-1.000000,-8.000000,-8.000000,2.000000,2.000000,-11.750000,-3.312500,-2.312500,-0.042969,0.796875,0.568359
Sun May 14 14:43:47 2017,-1.000000,-6.000000,-2.000000,-1.000000,-8.000000,-8.000000,2.000000,2.000000,-11.750000,-3.312500,-2.312500,-0.042969,0.796875,0.568359
Sun May 14 14:43:47 2017,0.000000,-5.000000,-8.000000,-2.000000,-3.000000,3.000000,6.000000,-2.000000,-11.750000,-3.312500,-2.312500,-0.042969,0.796875,0.568359
Sun May 14 14:43:47 2017,30.000000,24.000000,3.000000,5.000000,3.000000,4.000000,-3.000000,5.000000,-10.000000,-4.312500,-3.500000,-0.046387,0.773926,0.582031
Sun May 14 14:43:47 2017,30.000000,24.000000,3.000000,5.000000,3.000000,4.000000,-3.000000,5.000000,-10.000000,-4.312500,-3.500000,-0.046387,0.773926,0.582031
Sun May 14 14:43:47 2017,-9.000000,-17.000000,-12.000000,-6.000000,0.000000,0.000000,2.000000,-4.000000,-10.000000,-4.312500,-3.500000,-0.046387,0.773926,0.582031
Sun May 14 14:43:47 2017,-9.000000,-17.000000,-12.000000,-6.000000,0.000000,0.000000,2.000000,-4.000000,-10.000000,-4.312500,-3.500000,-0.046387,0.773926,0.582031
Sun May 14 14:43:47 2017,-9.000000,-17.000000,-12.000000,-6.000000,0.000000,0.000000,2.000000,-4.000000,-6.562500,-3.875000,-2.125000,-0.057617,0.785645,0.569336
Sun May 14 14:43:47 2017,-9.000000,-17.000000,-12.000000,-6.000000,0.000000,0.000000,2.000000,-4.000000,-6.562500,-3.875000,-2.125000,-0.057617,0.785645,0.569336
Sun May 14 14:43:47 2017,-5.000000,6.000000,0.000000,-5.000000,-1.000000,1.000000,-3.000000,-5.000000,-6.562500,-3.875000,-2.125000,-0.057617,0.785645,0.569336
Sun May 14 14:43:47 2017,-5.000000,6.000000,0.000000,-5.000000,-1.000000,1.000000,-3.000000,-5.000000,6.812500,-2.875000,-2.000000,-0.056152,0.819824,0.543945
Sun May 14 14:43:47 2017,-5.000000,6.000000,0.000000,-5.000000,-1.000000,1.000000,-3.000000,-5.000000,6.812500,-2.875000,-2.000000,-0.056152,0.819824,0.543945
Sun May 14 14:43:47 2017,-5.000000,6.000000,0.000000,-5.000000,-1.000000,1.000000,-3.000000,-5.000000,6.812500,-2.875000,-2.000000,-0.056152,0.819824,0.543945
Sun May 14 14:43:47 2017,5.000000,48.000000,19.000000,-1.000000,-3.000000,-3.000000,-7.000000,-2.000000,-3.875000,-6.062500,2.187500,-0.055664,0.861816,0.544434
Sun May 14 14:43:47 2017,5.000000,48.000000,19.000000,-1.000000,-3.000000,-3.000000,-7.000000,-2.000000,-3.875000,-6.062500,2.187500,-0.055664,0.861816,0.544434
Sun May 14 14:43:47 2017,5.000000,-9.000000,-2.000000,1.000000,0.000000,1.000000,-2.000000,0.000000,-3.875000,-6.062500,2.187500,-0.055664,0.861816,0.544434
Sun May 14 14:43:47 2017,5.000000,-9.000000,-2.000000,1.000000,0.000000,1.000000,-2.000000,0.000000,-9.937500,-6.187500,-0.062500,-0.037109,0.836426,0.541504
Sun May 14 14:43:47 2017,5.000000,-9.000000,-2.000000,1.000000,0.000000,1.000000,-2.000000,0.000000,-9.937500,-6.187500,-0.062500,-0.037109,0.836426,0.541504
Sun May 14 14:43:47 2017,5.000000,-9.000000,-2.000000,1.000000,0.000000,1.000000,-2.000000,0.000000,-9.937500,-6.187500,-0.062500,-0.037109,0.836426,0.541504
Sun May 14 14:43:47 2017,-15.000000,-82.000000,-31.000000,-3.000000,-3.000000,-4.000000,3.000000,-2.000000,-9.937500,-6.187500,-0.062500,-0.037109,0.836426,0.541504
Sun May 14 14:43:47 2017,-15.000000,-82.000000,-31.000000,-3.000000,-3.000000,-4.000000,3.000000,-2.000000,-16.625000,-8.000000,2.687500,-0.040527,0.864258,0.563965
Sun May 14 14:43:47 2017,-15.000000,-82.000000,-31.000000,-3.000000,-3.000000,-4.000000,3.000000,-2.000000,-16.625000,-8.000000,2.687500,-0.040527,0.864258,0.563965
Sun May 14 14:43:47 2017,-15.000000,-82.000000,-31.000000,-3.000000,-3.000000,-4.000000,3.000000,-2.000000,-16.625000,-8.000000,2.687500,-0.040527,0.864258,0.563965
Sun May 14 14:43:47 2017,1.000000,14.000000,23.000000,4.000000,3.000000,1.000000,1.000000,-1.000000,-16.625000,-8.000000,2.687500,-0.040527,0.864258,0.563965
Sun May 14 14:43:47 2017,1.000000,14.000000,23.000000,4.000000,3.000000,1.000000,1.000000,-1.000000,-22.500000,-7.312500,1.937500,-0.044922,0.816895,0.574707
Sun May 14 14:43:47 2017,0.000000,-7.000000,-4.000000,9.000000,1.000000,4.000000,8.000000,2.000000,-22.500000,-7.312500,1.937500,-0.044922,0.816895,0.574707
Sun May 14 14:43:47 2017,0.000000,-7.000000,-4.000000,9.000000,1.000000,4.000000,8.000000,2.000000,-22.500000,-7.312500,1.937500,-0.044922,0.816895,0.574707
Sun May 14 14:43:47 2017,-1.000000,2.000000,-13.000000,-2.000000,1.000000,3.000000,5.000000,0.000000,-22.500000,-7.312500,1.937500,-0.044922,0.816895,0.574707
Sun May 14 14:43:47 2017,-1.000000,2.000000,-13.000000,-2.000000,1.000000,3.000000,5.000000,0.000000,-27.437500,-6.312500,3.750000,-0.062988,0.769531,0.545898
Sun May 14 14:43:47 2017,-5.000000,-14.000000,4.000000,-3.000000,-5.000000,-4.000000,-6.000000,-6.000000,-27.437500,-6.312500,3.750000,-0.062988,0.769531,0.545898
Sun May 14 14:43:47 2017,-5.000000,-14.000000,4.000000,-3.000000,-5.000000,-4.000000,-6.000000,-6.000000,-36.562500,-8.687500,-0.125000,-0.013184,0.766602,0.549316
Sun May 14 14:43:47 2017,-5.000000,-14.000000,4.000000,-3.000000,-5.000000,-4.000000,-6.000000,-6.000000,-36.562500,-8.687500,-0.125000,-0.013184,0.766602,0.549316
Sun May 14 14:43:47 2017,-5.000000,-14.000000,4.000000,-3.000000,-5.000000,-4.000000,-6.000000,-6.000000,-36.562500,-8.687500,-0.125000,-0.013184,0.766602,0.549316
Sun May 14 14:43:47 2017,-3.000000,-11.000000,-24.000000,3.000000,3.000000,3.000000,3.000000,1.000000,-36.562500,-8.687500,-0.125000,-0.013184,0.766602,0.549316
Sun May 14 14:43:47 2017,-3.000000,-11.000000,-24.000000,3.000000,3.000000,3.000000,3.000000,1.000000,-36.562500,-8.687500,-0.125000,-0.013184,0.766602,0.549316
Sun May 14 14:43:47 2017,-3.000000,-11.000000,-24.000000,3.000000,3.000000,3.000000,3.000000,1.000000,-23.187500,-4.437500,-0.812500,0.000977,0.719238,0.608398
Sun May 14 14:43:47 2017,10.000000,5.000000,7.000000,-2.000000,-1.000000,3.000000,5.000000,0.000000,-23.187500,-4.437500,-0.812500,0.000977,0.719238,0.608398
Sun May 14 14:43:47 2017,10.000000,5.000000,7.000000,-2.000000,-1.000000,3.000000,5.000000,0.000000,-23.187500,-4.437500,-0.812500,0.000977,0.719238,0.608398
Sun May 14 14:43:47 2017,10.000000,5.000000,7.000000,-2.000000,-1.000000,3.000000,5.000000,0.000000,-23.187500,-4.437500,-0.812500,0.000977,0.719238,0.608398
Sun May 14 14:43:47 2017,-9.000000,-28.000000,-18.000000,-9.000000,-5.000000,-1.000000,-1.000000,-3.000000,-2.062500,0.625000,2.500000,-0.020508,0.711426,0.604980
Sun May 14 14:43:47 2017,16.000000,47.000000,15.000000,11.000000,6.000000,3.000000,3.000000,3.000000,-2.062500,0.625000,2.500000,-0.020508,0.711426,0.604980
Sun May 14 14:43:47 2017,16.000000,47.000000,15.000000,11.000000,6.000000,3.000000,3.000000,3.000000,2.562500,2.250000,2.375000,-0.043945,0.744141,0.598633
Sun May 14 14:43:47 2017,16.000000,47.000000,15.000000,11.000000,6.000000,3.000000,3.000000,3.000000,2.562500,2.250000,2.375000,-0.043945,0.744141,0.598633
Sun May 14 14:43:47 2017,-32.000000,-37.000000,-13.000000,-14.000000,-4.000000,-4.000000,-1.000000,-11.000000,2.562500,2.250000,2.375000,-0.043945,0.744141,0.598633
Sun May 14 14:43:47 2017,-2.000000,-13.000000,-4.000000,-7.000000,-3.000000,0.000000,3.000000,2.000000,2.562500,2.250000,2.375000,-0.043945,0.744141,0.598633
Sun May 14 14:43:47 2017,-2.000000,-13.000000,-4.000000,-7.000000,-3.000000,0.000000,3.000000,2.000000,5.312500,3.625000,4.000000,-0.022949,0.774902,0.603516
Sun May 14 14:43:47 2017,14.000000,3.000000,11.000000,8.000000,0.000000,3.000000,9.000000,4.000000,5.312500,3.625000,4.000000,-0.022949,0.774902,0.603516
Sun May 14 14:43:47 2017,14.000000,3.000000,11.000000,8.000000,0.000000,3.000000,9.000000,4.000000,5.312500,3.625000,4.000000,-0.022949,0.774902,0.603516
Sun May 14 14:43:47 2017,-11.000000,-39.000000,7.000000,-1.000000,0.000000,-3.000000,-2.000000,-1.000000,7.250000,4.937500,3.062500,-0.023926,0.783691,0.599121
Sun May 14 14:43:47 2017,-11.000000,-39.000000,7.000000,-1.000000,0.000000,-3.000000,-2.000000,-1.000000,7.250000,4.937500,3.062500,-0.023926,0.783691,0.599121
Sun May 14 14:43:47 2017,7.000000,24.000000,8.000000,1.000000,-1.000000,-3.000000,-6.000000,2.000000,7.250000,4.937500,3.062500,-0.023926,0.783691,0.599121
Sun May 14 14:43:47 2017,7.000000,24.000000,8.000000,1.000000,-1.000000,-3.000000,-6.000000,2.000000,7.250000,4.937500,3.062500,-0.023926,0.783691,0.599121
Sun May 14 14:43:47 2017,7.000000,24.000000,8.000000,1.000000,-1.000000,-3.000000,-6.000000,2.000000,6.562500,3.687500,1.437500,-0.050781,0.783691,0.587402
Sun May 14 14:43:47 2017,7.000000,24.000000,8.000000,1.000000,-1.000000,-3.000000,-6.000000,2.000000,6.562500,3.687500,1.437500,-0.050781,0.783691,0.587402
Sun May 14 14:43:47 2017,-2.000000,23.000000,-1.000000,-3.000000,-4.000000,0.000000,0.000000,-5.000000,6.562500,3.687500,1.437500,-0.050781,0.783691,0.587402
Sun May 14 14:43:47 2017,-2.000000,23.000000,-1.000000,-3.000000,-4.000000,0.000000,0.000000,-5.000000,4.187500,3.375000,-0.375000,-0.051270,0.809082,0.601562
Sun May 14 14:43:47 2017,-2.000000,23.000000,-1.000000,-3.000000,-4.000000,0.000000,0.000000,-5.000000,4.187500,3.375000,-0.375000,-0.051270,0.809082,0.601562
Sun May 14 14:43:47 2017,10.000000,29.000000,12.000000,4.000000,0.000000,-1.000000,-2.000000,1.000000,4.187500,3.375000,-0.375000,-0.051270,0.809082,0.601562
Sun May 14 14:43:47 2017,-4.000000,-3.000000,-3.000000,1.000000,3.000000,4.000000,9.000000,2.000000,-2.625000,0.750000,0.562500,-0.059570,0.804688,0.583008
Sun May 14 14:43:47 2017,-4.000000,-3.000000,-3.000000,1.000000,3.000000,4.000000,9.000000,2.000000,-2.625000,0.750000,0.562500,-0.059570,0.804688,0.583008
Sun May 14 14:43:47 2017,-4.000000,-3.000000,-3.000000,1.000000,3.000000,4.000000,9.000000,2.000000,-2.625000,0.750000,0.562500,-0.059570,0.804688,0.583008
Sun May 14 14:43:47 2017,-1.000000,11.000000,10.000000,-2.000000,-3.000000,-2.000000,-5.000000,-3.000000,-2.625000,0.750000,0.562500,-0.059570,0.804688,0.583008
Sun May 14 14:43:47 2017,-1.000000,11.000000,10.000000,-2.000000,-3.000000,-2.000000,-5.000000,-3.000000,-2.625000,-0.750000,1.375000,-0.052246,0.781250,0.600098
Sun May 14 14:43:47 2017,-1.000000,11.000000,10.000000,-2.000000,-3.000000,-2.000000,-5.000000,-3.000000,-2.625000,-0.750000,1.375000,-0.052246,0.781250,0.600098
Sun May 14 14:43:47 2017,-4.000000,-7.000000,-3.000000,-3.000000,3.000000,2.000000,-2.000000,-7.000000,-2.625000,-0.750000,1.375000,-0.052246,0.781250,0.600098
Sun May 14 14:43:47 2017,-4.000000,-7.000000,-3.000000,-3.000000,3.000000,2.000000,-2.000000,-7.000000,-2.625000,-0.750000,1.375000,-0.052246,0.781250,0.600098
Sun May 14 14:43:47 2017,-4.000000,-7.000000,-3.000000,-3.000000,3.000000,2.000000,-2.000000,-7.000000,1.312500,-1.375000,1.312500,-0.035645,0.764648,0.593262
Sun May 14 14:43:47 2017,-4.000000,-7.000000,-3.000000,-3.000000,3.000000,2.000000,-2.000000,-7.000000,1.312500,-1.375000,1.312500,-0.035645,0.764648,0.593262
Sun May 14 14:43:47 2017,-5.000000,3.000000,5.000000,5.000000,0.000000,-11.000000,-5.000000,-5.000000,1.312500,-1.375000,1.312500,-0.035645,0.764648,0.593262
Sun May 14 14:43:47 2017,5.000000,0.000000,6.000000,8.000000,31.000000,31.000000,1.000000,4.000000,2.500000,-1.687500,-0.125000,-0.027832,0.784180,0.585449
Sun May 14 14:43:47 2017,5.000000,0.000000,6.000000,8.000000,31.000000,31.000000,1.000000,4.000000,2.500000,-1.687500,-0.125000,-0.027832,0.784180,0.585449
Sun May 14 14:43:47 2017,-7.000000,1.000000,1.000000,-4.000000,-26.000000,-23.000000,-4.000000,-4.000000,2.500000,-1.687500,-0.125000,-0.027832,0.784180,0.585449
Sun May 14 14:43:47 2017,-7.000000,1.000000,1.000000,-4.000000,-26.000000,-23.000000,-4.000000,-4.000000,4.187500,0.437500,-0.500000,-0.024902,0.778809,0.578125
Sun May 14 14:43:47 2017,-7.000000,1.000000,1.000000,-4.000000,-26.000000,-23.000000,-4.000000,-4.000000,4.187500,0.437500,-0.500000,-0.024902,0.778809,0.578125
Sun May 14 14:43:47 2017,-7.000000,1.000000,1.000000,-4.000000,-26.000000,-23.000000,-4.000000,-4.000000,4.187500,0.437500,-0.500000,-0.024902,0.778809,0.578125
Sun May 14 14:43:47 2017,2.000000,1.000000,0.000000,-2.000000,0.000000,1.000000,3.000000,1.000000,4.187500,0.437500,-0.500000,-0.024902,0.778809,0.578125
Sun May 14 14:43:47 2017,2.000000,1.000000,0.000000,-2.000000,0.000000,1.000000,3.000000,1.000000,12.250000,4.125000,-0.875000,-0.018066,0.777344,0.600586
Sun May 14 14:43:47 2017,-24.000000,-14.000000,-2.000000,-3.000000,-2.000000,-6.000000,-9.000000,-7.000000,12.250000,4.125000,-0.875000,-0.018066,0.777344,0.600586
Sun May 14 14:43:47 2017,16.000000,-2.000000,-2.000000,-5.000000,-6.000000,-4.000000,-2.000000,-1.000000,12.250000,4.125000,-0.875000,-0.018066,0.777344,0.600586
Sun May 14 14:43:47 2017,16.000000,-2.000000,-2.000000,-5.000000,-6.000000,-4.000000,-2.000000,-1.000000,12.250000,4.125000,-0.875000,-0.018066,0.777344,0.600586
Sun May 14 14:43:47 2017,9.000000,18.000000,8.000000,-1.000000,-1.000000,-3.000000,-1.000000,2.000000,11.375000,3.687500,-1.125000,-0.053223,0.766113,0.598633
Sun May 14 14:43:47 2017,-2.000000,-11.000000,-2.000000,-2.000000,-4.000000,-5.000000,-12.000000,-5.000000,11.375000,3.687500,-1.125000,-0.053223,0.766113,0.598633
Sun May 14 14:43:47 2017,-2.000000,-11.000000,-2.000000,-2.000000,-4.000000,-5.000000,-12.000000,-5.000000,11.375000,3.687500,-1.125000,-0.053223,0.766113,0.598633
Sun May 14 14:43:47 2017,-2.000000,-11.000000,-2.000000,-2.000000,-4.000000,-5.000000,-12.000000,-5.000000,7.687500,2.062500,-2.312500,-0.051270,0.776367,0.591797
Sun May 14 14:43:47 2017,-2.000000,-11.000000,-2.000000,-2.000000,-4.000000,-5.000000,-12.000000,-5.000000,7.687500,2.062500,-2.312500,-0.051270,0.776367,0.591797
Sun May 14 14:43:47 2017,-7.000000,-20.000000,-4.000000,7.000000,44.000000,40.000000,5.000000,-4.000000,7.687500,2.062500,-2.312500,-0.051270,0.776367,0.591797
Sun May 14 14:43:47 2017,-7.000000,-20.000000,-4.000000,7.000000,44.000000,40.000000,5.000000,-4.000000,2.625000,-0.687500,-5.375000,-0.038086,0.815918,0.572754
Sun May 14 14:43:47 2017,-7.000000,-20.000000,-4.000000,7.000000,44.000000,40.000000,5.000000,-4.000000,2.625000,-0.687500,-5.375000,-0.038086,0.815918,0.572754
Sun May 14 14:43:47 2017,-7.000000,-20.000000,-4.000000,7.000000,44.000000,40.000000,5.000000,-4.000000,2.625000,-0.687500,-5.375000,-0.038086,0.815918,0.572754
Sun May 14 14:43:47 2017,-5.000000,-5.000000,-15.000000,-9.000000,-6.000000,-3.000000,-5.000000,-3.000000,2.625000,-0.687500,-5.375000,-0.038086,0.815918,0.572754
Sun May 14 14:43:47 2017,-15.000000,-40.000000,-31.000000,-9.000000,-25.000000,-24.000000,-7.000000,-6.000000,6.812500,0.500000,-4.062500,-0.041504,0.783203,0.584961
Sun May 14 14:43:47 2017,-15.000000,-40.000000,-31.000000,-9.000000,-25.000000,-24.000000,-7.000000,-6.000000,6.812500,0.500000,-4.062500,-0.041504,0.783203,0.584961
Sun May 14 14:43:47 2017,23.000000,50.000000,39.000000,13.000000,-2.000000,-3.000000,5.000000,6.000000,6.812500,0.500000,-4.062500,-0.041504,0.783203,0.584961
Sun May 14 14:43:47 2017,23.000000,50.000000,39.000000,13.000000,-2.000000,-3.000000,5.000000,6.000000,12.562500,2.062500,-1.125000,-0.038574,0.809570,0.591309
Sun May 14 14:43:47 2017,23.000000,50.000000,39.000000,13.000000,-2.000000,-3.000000,5.000000,6.000000,12.562500,2.062500,-1.125000,-0.038574,0.809570,0.591309
Sun May 14 14:43:47 2017,23.000000,50.000000,39.000000,13.000000,-2.000000,-3.000000,5.000000,6.000000,12.562500,2.062500,-1.125000,-0.038574,0.809570,0.591309
Sun May 14 14:43:47 2017,-11.000000,-23.000000,-33.000000,-17.000000,-9.000000,-4.000000,0.000000,0.000000,12.562500,2.062500,-1.125000,-0.038574,0.809570,0.591309
Sun May 14 14:43:47 2017,-11.000000,-23.000000,-33.000000,-17.000000,-9.000000,-4.000000,0.000000,0.000000,12.687500,4.750000,3.000000,-0.054688,0.868652,0.563965
Sun May 14 14:43:47 2017,-11.000000,-23.000000,-33.000000,-17.000000,-9.000000,-4.000000,0.000000,0.000000,12.687500,4.750000,3.000000,-0.054688,0.868652,0.563965
